condition,randomizer.started,randomizer.stopped,participant,session,date,expName,psychopyVersion,OS,frameRate,begin_exp.started,begin_exp.stopped,key_resp_11.keys,key_resp_11.rt,key_resp_11.duration,consent.started,consent.stopped,consent_resp.keys,consent_resp.rt,consent_resp.duration,consent2.started,consent2.stopped,consent_resp_2.keys,consent_resp_2.rt,consent_resp_2.duration,consent3.started,consent3.stopped,consent_resp_3.keys,consent_resp_3.rt,consent_resp_3.duration,consent4.started,consent4.stopped,consent_resp_4.keys,consent_resp_4.rt,consent_resp_4.duration,consent5.started,consent5.stopped,consent_resp_5.keys,consent_resp_5.rt,consent_resp_5.duration,consent6.started,consent6.stopped,consent_resp_6.keys,consent_resp_6.rt,consent_resp_6.duration,demographic_questions.started,demographic_questions.stopped,key_resp_3.keys,key_resp_3.rt,key_resp_3.duration,demo_age.started,demo_age.stopped,textbox.text,key_resp_5.keys,key_resp_5.rt,key_resp_5.duration,demo_native_lang.started,demo_native_lang.stopped,textbox_5.text,key_resp_9.keys,key_resp_9.rt,key_resp_9.duration,demo_other_langs.started,demo_other_langs.stopped,textbox_6.text,key_resp_10.keys,key_resp_10.rt,key_resp_10.duration,demo_info.thisRepN,demo_info.thisTrialN,demo_info.thisN,demo_info.thisIndex,demo_info.ran,instructions.started,instructions.stopped,key_resp_4.keys,key_resp_4.rt,key_resp_4.duration,begin_experiment.started,begin_experiment.stopped,experiment_start_resp.keys,experiment_start_resp.rt,experiment_start_resp.duration,training.started,training.stopped,textbox_7.text,key_resp_18.keys,key_resp_18.rt,key_resp_18.duration,training_2.started,training_2.stopped,clear_screen.started,clear_screen.stopped,training_block.thisRepN,training_block.thisTrialN,training_block.thisN,training_block.thisIndex,training_block.ran,stem,suffix,label,stem_filename,file,filepath,image_size,image_location,audio_files,which_condition.thisRepN,which_condition.thisTrialN,which_condition.thisN,which_condition.thisIndex,which_condition.ran,which_condition.order,select_condition,training_block.order
5,0.0002,0.0003,60594,001,2025-01-20_16h33.36.057,generalizability_mini,2023.2.2,Win32,166.6666667,,,,,,,,,,,,,,,,,,,,,,,,,,,,,,,,,,,,,,,,,,,,,,,,,,,,,,,,,,,,,,,,,,,,,,,,,,,,,,,,,,,,,,,,,,,,,,,,,,,,,,,,,
,,,60594,001,2025-01-20_16h33.36.057,generalizability_mini,2023.2.2,Win32,166.6666667,0.0013,5.8315,space,5.8254,,5.8315,10.8362,space,4.9859,,10.8363,30.7463,space,19.9026,,30.7464,97.611,space,66.8582,,97.611,105.2369,space,7.62,,105.2369,108.3375,space,3.0933,,108.3375,112.7778,space,4.4345,,112.7778,119.7831,space,6.9915,,119.7832,125.2815,18,return,5.4828,,125.2816,130.6211,English,return,5.3316,,130.6212,134.4162,,return,3.7881,,0,0,0,0,1,,,,,,,,,,,,,,,,,,,,,,,,,,,,,,,,,,,,,,,,,,
,,,60594,001,2025-01-20_16h33.36.057,generalizability_mini,2023.2.2,Win32,166.6666667,,,,,,,,,,,,,,,,,,,,,,,,,,,,,,,,,,,,,,,,,,,,,,,,,,,,,,,,,,,,,,,,134.4165,147.4027,return,10.9756,,,,,,,,,,,,,,,,,,,,,,,,,,,,,,,,,,,,,,
,,,60594,001,2025-01-20_16h33.36.057,generalizability_mini,2023.2.2,Win32,166.6666667,,,,,,,,,,,,,,,,,,,,,,,,,,,,,,,,,,,,,,,,,,,,,,,,,,,,,,,,,,,,,,,,,,,,,147.4028,153.3181,return,5.9085,,,,,,,,,,,,,,,,,,,,,,,,,,,,,,,,,
,,,60594,001,2025-01-20_16h33.36.057,generalizability_mini,2023.2.2,Win32,166.6666667,,,,,,,,,,,,,,,,,,,,,,,,,,,,,,,,,,,,,,,,,,,,,,,,,,,,,,,,,,,,,,,,,,,,,,,,,,153.3217,157.822,,"[""j"",""o"",""r"",""a"",""N/A"",""N/A"",""N/A"",""N/A""]","[3.0960000000000036,3.1711000000001093,3.3445000000000107,3.4676000000000897,3.7507999999998276,4.058600000000098,4.210200000000185,4.415999999999997]","[null,null,null,null,null,null,null,null]",157.8223,158.3228,158.3229,158.8198,0,0,0,9,1,kora,nem,koranem,3,3_dim_sg.PNG,stems_all/3_dim_sg.PNG,,,zara_audio_files/koranem.wav,,,,,,,,
,,,60594,001,2025-01-20_16h33.36.057,generalizability_mini,2023.2.2,Win32,166.6666667,,,,,,,,,,,,,,,,,,,,,,,,,,,,,,,,,,,,,,,,,,,,,,,,,,,,,,,,,,,,,,,,,,,,,,,,,,158.8201,163.3193,berk,"[""r"",""b"",""e"",""r"",""k""]","[0.006600000000076989,3.3828999999998928,3.539999999999992,3.6553999999999007,4.015100000000075]","[null,null,null,null,null]",163.3193,163.8166,163.8166,164.3169,0,1,1,6,1,berko,nem,berkonem,2,2_dim_sg.PNG,stems_all/2_dim_sg.PNG,,,zara_audio_files/berkonem.wav,,,,,,,,
,,,60594,001,2025-01-20_16h33.36.057,generalizability_mini,2023.2.2,Win32,166.6666667,,,,,,,,,,,,,,,,,,,,,,,,,,,,,,,,,,,,,,,,,,,,,,,,,,,,,,,,,,,,,,,,,,,,,,,,,,164.3172,168.8146,kord,"[""k"",""o"",""r"",""d""]","[3.765000000000015,3.8285000000000196,3.9513999999999214,4.189000000000021]","[null,null,null,null]",168.8146,169.3113,169.3113,169.8082,0,2,2,14,1,kora,dan,koradan,3,3_2.PNG,stems_all/3_2.PNG,,,zara_audio_files/koradan.wav,,,,,,,,
,,,60594,001,2025-01-20_16h33.36.057,generalizability_mini,2023.2.2,Win32,166.6666667,,,,,,,,,,,,,,,,,,,,,,,,,,,,,,,,,,,,,,,,,,,,,,,,,,,,,,,,,,,,,,,,,,,,,,,,,,169.8083,174.3085,,,,,174.3085,174.8087,174.8087,175.3055,0,3,3,0,1,bal,nem,balnem,1,1_dim_sg.PNG,stems_all/1_dim_sg.PNG,,,zara_audio_files/balnem.wav,,,,,,,,
,,,60594,001,2025-01-20_16h33.36.057,generalizability_mini,2023.2.2,Win32,166.6666667,,,,,,,,,,,,,,,,,,,,,,,,,,,,,,,,,,,,,,,,,,,,,,,,,,,,,,,,,,,,,,,,,,,,,,,,,,175.306,179.8032,,,,,179.8032,180.2996,180.2996,180.7966,0,4,4,2,1,bal,nem,balnem,1,1_dim_sg.PNG,stems_all/1_dim_sg.PNG,,,zara_audio_files/balnem.wav,,,,,,,,
,,,60594,001,2025-01-20_16h33.36.057,generalizability_mini,2023.2.2,Win32,166.6666667,,,,,,,,,,,,,,,,,,,,,,,,,,,,,,,,,,,,,,,,,,,,,,,,,,,,,,,,,,,,,,,,,,,,,,,,,,180.7968,185.2942,berk,"[""b"",""e"",""r"",""k""]","[3.817399999999907,3.9873999999998944,4.10929999999982,4.417199999999724]","[null,null,null,null]",185.2942,185.7909,185.7909,186.2879,0,5,5,16,1,berko,sil,berkosil,2,2_2.PNG,stems_all/2_2.PNG,,,zara_audio_files/berkosil.wav,,,,,,,,
,,,60594,001,2025-01-20_16h33.36.057,generalizability_mini,2023.2.2,Win32,166.6666667,,,,,,,,,,,,,,,,,,,,,,,,,,,,,,,,,,,,,,,,,,,,,,,,,,,,,,,,,,,,,,,,,,,,,,,,,,186.288,190.7856,,,,,190.7857,191.2821,191.2821,191.7791,0,6,6,11,1,kora,nem,koranem,3,3_dim_sg.PNG,stems_all/3_dim_sg.PNG,,,zara_audio_files/koranem.wav,,,,,,,,
,,,60594,001,2025-01-20_16h33.36.057,generalizability_mini,2023.2.2,Win32,166.6666667,,,,,,,,,,,,,,,,,,,,,,,,,,,,,,,,,,,,,,,,,,,,,,,,,,,,,,,,,,,,,,,,,,,,,,,,,,191.7794,195.9283,baldan,"[""N/A"",""b"",""a"",""l"",""d"",""a"",""n"",""return""]","[0.9461000000000581,3.3034999999999854,3.4082999999997696,3.5124999999999886,3.6868999999998664,3.9044999999999845,3.9991000000000554,4.140699999999697]","[null,null,null,null,null,null,null,null]",195.9284,196.4293,196.4294,196.931,0,7,7,12,1,bal,dan,baldan,1,1_2.PNG,stems_all/1_2.PNG,,,zara_audio_files/baldan.wav,,,,,,,,
,,,60594,001,2025-01-20_16h33.36.057,generalizability_mini,2023.2.2,Win32,166.6666667,,,,,,,,,,,,,,,,,,,,,,,,,,,,,,,,,,,,,,,,,,,,,,,,,,,,,,,,,,,,,,,,,,,,,,,,,,196.9311,200.2259,korasil,"[""k"",""o"",""r"",""a"",""s"",""i"",""l"",""return""]","[2.239799999999775,2.322999999999979,2.432199999999682,2.632000000000005,2.8562999999998056,3.0197999999998046,3.036399999999901,3.286199999999724]","[null,null,null,null,null,null,null,null]",200.2259,200.7251,200.7251,201.2263,0,8,8,17,1,kora,sil,korasil,3,3_2.PNG,stems_all/3_2.PNG,,,zara_audio_files/korasil.wav,,,,,,,,
,,,60594,001,2025-01-20_16h33.36.057,generalizability_mini,2023.2.2,Win32,166.6666667,,,,,,,,,,,,,,,,,,,,,,,,,,,,,,,,,,,,,,,,,,,,,,,,,,,,,,,,,,,,,,,,,,,,,,,,,,201.2264,205.3715,koranem,"[""k"",""l"",""r"",""N/A"",""N/A"",""o"",""r"",""a"",""n"",""e"",""m"",""return""]","[0.9713000000002694,1.1793000000002962,1.3874999999999886,1.6796000000001072,1.8198000000002708,2.0313000000002717,2.2434000000003493,3.1393000000002758,3.346400000000358,3.5160000000000196,3.6434000000003834,4.1402000000001635]","[null,null,null,null,null,null,null,null,null,null,null,null]",205.3715,205.8734,205.8734,206.3703,0,9,9,8,1,kora,nem,koranem,3,3_dim_sg.PNG,stems_all/3_dim_sg.PNG,,,zara_audio_files/koranem.wav,,,,,,,,
,,,60594,001,2025-01-20_16h33.36.057,generalizability_mini,2023.2.2,Win32,166.6666667,,,,,,,,,,,,,,,,,,,,,,,,,,,,,,,,,,,,,,,,,,,,,,,,,,,,,,,,,,,,,,,,,,,,,,,,,,206.3704,210.8712,,,,,210.8712,211.368,211.3681,211.865,0,10,10,21,1,bal,none,bal,1,1.PNG,stems_all/1.PNG,,,zara_audio_files/bal.wav,,,,,,,,
,,,60594,001,2025-01-20_16h33.36.057,generalizability_mini,2023.2.2,Win32,166.6666667,,,,,,,,,,,,,,,,,,,,,,,,,,,,,,,,,,,,,,,,,,,,,,,,,,,,,,,,,,,,,,,,,,,,,,,,,,211.8651,216.3642,,,,,216.3643,216.8616,216.8616,217.3622,0,11,11,13,1,berko,dan,berkodan,2,2_2.PNG,stems_all/2_2.PNG,,,zara_audio_files/berkodan.wav,,,,,,,,
,,,60594,001,2025-01-20_16h33.36.057,generalizability_mini,2023.2.2,Win32,166.6666667,,,,,,,,,,,,,,,,,,,,,,,,,,,,,,,,,,,,,,,,,,,,,,,,,,,,,,,,,,,,,,,,,,,,,,,,,,217.3625,221.8599,,,,,221.86,222.3565,222.3565,222.8535,0,12,12,1,1,bal,nem,balnem,1,1_dim_sg.PNG,stems_all/1_dim_sg.PNG,,,zara_audio_files/balnem.wav,,,,,,,,
,,,60594,001,2025-01-20_16h33.36.057,generalizability_mini,2023.2.2,Win32,166.6666667,,,,,,,,,,,,,,,,,,,,,,,,,,,,,,,,,,,,,,,,,,,,,,,,,,,,,,,,,,,,,,,,,,,,,,,,,,222.8537,227.3523,,,,,227.3523,227.8552,227.8552,228.3509,0,13,13,10,1,kora,nem,koranem,3,3_dim_sg.PNG,stems_all/3_dim_sg.PNG,,,zara_audio_files/koranem.wav,,,,,,,,
,,,60594,001,2025-01-20_16h33.36.057,generalizability_mini,2023.2.2,Win32,166.6666667,,,,,,,,,,,,,,,,,,,,,,,,,,,,,,,,,,,,,,,,,,,,,,,,,,,,,,,,,,,,,,,,,,,,,,,,,,228.3511,232.1905,korashoon,"[""k"",""o"",""r"",""a"",""s"",""h"",""o"",""o"",""n"",""return""]","[2.5033999999999423,2.5640000000000214,2.722000000000037,2.8793999999999187,3.227099999999666,3.3551999999997406,3.4612999999998237,3.606699999999762,3.717099999999675,3.8312999999998283]","[null,null,null,null,null,null,null,null,null,null]",232.1905,232.693,232.6931,233.1934,0,14,14,20,1,kora,shoon,korashoon,3,3_dim_sg.PNG,stems_all/3_dim_sg.PNG,,,zara_audio_files/korashoon.wav,,,,,,,,
,,,60594,001,2025-01-20_16h33.36.057,generalizability_mini,2023.2.2,Win32,166.6666667,,,,,,,,,,,,,,,,,,,,,,,,,,,,,,,,,,,,,,,,,,,,,,,,,,,,,,,,,,,,,,,,,,,,,,,,,,233.1937,236.2669,balsil,"[""b"",""a"",""l"",""s"",""i"",""l"",""return""]","[2.24570000000017,2.361200000000167,2.5107000000001563,2.710600000000113,2.8088999999998805,2.9277000000001863,3.064399999999921]","[null,null,null,null,null,null,null]",236.2669,236.7634,236.7634,237.2627,0,15,15,15,1,bal,sil,balsil,1,1_2.PNG,stems_all/1_2.PNG,,,zara_audio_files/balsil.wav,,,,,,,,
,,,60594,001,2025-01-20_16h33.36.057,generalizability_mini,2023.2.2,Win32,166.6666667,,,,,,,,,,,,,,,,,,,,,,,,,,,,,,,,,,,,,,,,,,,,,,,,,,,,,,,,,,,,,,,,,,,,,,,,,,237.2629,241.7642,,"[""return""]",[1.055799999999806],[null],241.7642,242.2608,242.2608,242.7575,0,16,16,4,1,berko,nem,berkonem,2,2_dim_sg.PNG,stems_all/2_dim_sg.PNG,,,zara_audio_files/berkonem.wav,,,,,,,,
,,,60594,001,2025-01-20_16h33.36.057,generalizability_mini,2023.2.2,Win32,166.6666667,,,,,,,,,,,,,,,,,,,,,,,,,,,,,,,,,,,,,,,,,,,,,,,,,,,,,,,,,,,,,,,,,,,,,,,,,,242.7576,247.2553,,"[""return""]",[0.431299999999851],[null],247.2553,247.7519,247.7519,248.2489,0,17,17,5,1,berko,nem,berkonem,2,2_dim_sg.PNG,stems_all/2_dim_sg.PNG,,,zara_audio_files/berkonem.wav,,,,,,,,
,,,60594,001,2025-01-20_16h33.36.057,generalizability_mini,2023.2.2,Win32,166.6666667,,,,,,,,,,,,,,,,,,,,,,,,,,,,,,,,,,,,,,,,,,,,,,,,,,,,,,,,,,,,,,,,,,,,,,,,,,248.249,252.7466,baldan,"[""b"",""a"",""l"",""a"",""N/A"",""d"",""a"",""n"",""return""]","[0.9851000000001022,1.0889999999999986,1.2013000000002876,1.5047000000001844,1.8408999999999196,1.9392000000001985,2.009100000000103,2.0791000000000963,2.1698000000002935]","[null,null,null,null,null,null,null,null,null]",252.7466,253.2457,253.2457,253.7422,0,18,18,23,1,kora,none,kora,3,3.PNG,stems_all/3.PNG,,,zara_audio_files/kora.wav,,,,,,,,
,,,60594,001,2025-01-20_16h33.36.057,generalizability_mini,2023.2.2,Win32,166.6666667,,,,,,,,,,,,,,,,,,,,,,,,,,,,,,,,,,,,,,,,,,,,,,,,,,,,,,,,,,,,,,,,,,,,,,,,,,253.7424,,,,,,,,,,0,19,19,22,1,berko,none,berko,2,2.PNG,stems_all/2.PNG,,,zara_audio_files/berko.wav,0,0,0,0,1,0,Condition5.csv,119