condition,randomizer.started,randomizer.stopped,participant,session,date,expName,psychopyVersion,OS,frameRate,begin_exp.started,begin_exp.stopped,key_resp_11.keys,key_resp_11.rt,key_resp_11.duration,consent.started,consent.stopped,consent_resp.keys,consent_resp.rt,consent_resp.duration,consent2.started,consent2.stopped,consent_resp_2.keys,consent_resp_2.rt,consent_resp_2.duration,consent3.started,consent3.stopped,consent_resp_3.keys,consent_resp_3.rt,consent_resp_3.duration,consent4.started,consent4.stopped,consent_resp_4.keys,consent_resp_4.rt,consent_resp_4.duration,consent5.started,consent5.stopped,consent_resp_5.keys,consent_resp_5.rt,consent_resp_5.duration,consent6.started,consent6.stopped,consent_resp_6.keys,consent_resp_6.rt,consent_resp_6.duration,demographic_questions.started,demographic_questions.stopped,key_resp_3.keys,key_resp_3.rt,key_resp_3.duration,demo_age.started,demo_age.stopped,textbox.text,key_resp_5.keys,key_resp_5.rt,key_resp_5.duration,demo_native_lang.started,demo_native_lang.stopped,textbox_5.text,key_resp_9.keys,key_resp_9.rt,key_resp_9.duration,demo_other_langs.started,demo_other_langs.stopped,textbox_6.text,key_resp_10.keys,key_resp_10.rt,key_resp_10.duration,demo_info.thisRepN,demo_info.thisTrialN,demo_info.thisN,demo_info.thisIndex,demo_info.ran,instructions.started,instructions.stopped,key_resp_4.keys,key_resp_4.rt,key_resp_4.duration,begin_experiment.started,begin_experiment.stopped,experiment_start_resp.keys,experiment_start_resp.rt,experiment_start_resp.duration,training.started,training.stopped,textbox_7.text,key_resp_18.keys,training_2.started,training_2.stopped,clear_screen.started,clear_screen.stopped,training_block.thisRepN,training_block.thisTrialN,training_block.thisN,training_block.thisIndex,training_block.ran,stem,suffix,label,stem_filename,file,filepath,image_size,image_location,audio_files,key_resp_18.rt,key_resp_18.duration,which_condition.thisRepN,which_condition.thisTrialN,which_condition.thisN,which_condition.thisIndex,which_condition.ran,which_condition.order,select_condition,training_block.order
5,0,0.0001,60594,001,2025-01-20_16h43.32.025,generalizability_mini,2023.2.2,Win32,163.9344262,,,,,,,,,,,,,,,,,,,,,,,,,,,,,,,,,,,,,,,,,,,,,,,,,,,,,,,,,,,,,,,,,,,,,,,,,,,,,,,,,,,,,,,,,,,,,,,,,,,,,,,,,
,,,60594,001,2025-01-20_16h43.32.025,generalizability_mini,2023.2.2,Win32,163.9344262,0.0012,2.4844,space,2.4789,,2.4845,8.9074,space,6.409,,8.9075,15.0225,space,6.1046,,15.0226,24.1412,space,9.1108,,24.1413,29.9646,space,5.817,,29.9647,50.7547,space,20.7832,,50.7548,52.4794,space,1.7135,,52.4795,57.8207,space,5.3344,,57.8208,60.7503,18,return,2.9165,,60.7504,64.9651,English,return,4.2063,,64.9652,68.5515,None,return,3.5803,,0,0,0,0,1,,,,,,,,,,,,,,,,,,,,,,,,,,,,,,,,,,,,,,,,,,
,,,60594,001,2025-01-20_16h43.32.025,generalizability_mini,2023.2.2,Win32,163.9344262,,,,,,,,,,,,,,,,,,,,,,,,,,,,,,,,,,,,,,,,,,,,,,,,,,,,,,,,,,,,,,,,68.5516,79.4705,return,8.9092,,,,,,,,,,,,,,,,,,,,,,,,,,,,,,,,,,,,,,
,,,60594,001,2025-01-20_16h43.32.025,generalizability_mini,2023.2.2,Win32,163.9344262,,,,,,,,,,,,,,,,,,,,,,,,,,,,,,,,,,,,,,,,,,,,,,,,,,,,,,,,,,,,,,,,,,,,,79.4706,88.1314,return,8.6554,,,,,,,,,,,,,,,,,,,,,,,,,,,,,,,,,
,,,60594,001,2025-01-20_16h43.32.025,generalizability_mini,2023.2.2,Win32,163.9344262,,,,,,,,,,,,,,,,,,,,,,,,,,,,,,,,,,,,,,,,,,,,,,,,,,,,,,,,,,,,,,,,,,,,,,,,,,88.134,92.6358,,,92.6359,93.1358,93.1358,93.633,0,0,0,1,1,bal,nem,balnem,1,1_dim_sg.PNG,stems_all/1_dim_sg.PNG,,,zara_audio_files/balnem.wav,,,,,,,,,,
,,,60594,001,2025-01-20_16h43.32.025,generalizability_mini,2023.2.2,Win32,163.9344262,,,,,,,,,,,,,,,,,,,,,,,,,,,,,,,,,,,,,,,,,,,,,,,,,,,,,,,,,,,,,,,,,,,,,,,,,,93.6332,98.1332,,,98.1333,98.6331,98.6331,99.1302,0,1,1,22,1,berko,none,berko,2,2.PNG,stems_all/2.PNG,,,zara_audio_files/berko.wav,,,,,,,,,,
,,,60594,001,2025-01-20_16h43.32.025,generalizability_mini,2023.2.2,Win32,163.9344262,,,,,,,,,,,,,,,,,,,,,,,,,,,,,,,,,,,,,,,,,,,,,,,,,,,,,,,,,,,,,,,,,,,,,,,,,,99.1304,102.4522,baldan,"[""a"",""N/A"",""b"",""a"",""l"",""d"",""a"",""n"",""return""]",102.4522,102.9502,102.9502,103.4541,0,2,2,12,1,bal,dan,baldan,1,1_2.PNG,stems_all/1_2.PNG,,,zara_audio_files/baldan.wav,"[1.657799999999824,2.160799999999824,2.5520000000000067,2.6791999999997245,2.7276999999997287,2.9051999999997236,3.0564999999999998,3.159699999999731,3.312000000000012]","[null,null,null,null,null,null,null,null,null]",,,,,,,,
,,,60594,001,2025-01-20_16h43.32.025,generalizability_mini,2023.2.2,Win32,163.9344262,,,,,,,,,,,,,,,,,,,,,,,,,,,,,,,,,,,,,,,,,,,,,,,,,,,,,,,,,,,,,,,,,,,,,,,,,,103.4543,107.1795,korashoon,"[""k"",""o"",""r"",""a"",""s"",""h"",""o"",""o"",""n"",""return""]",107.1796,107.6776,107.6776,108.179,0,3,3,20,1,kora,shoon,korashoon,3,3_dim_sg.PNG,stems_all/3_dim_sg.PNG,,,zara_audio_files/korashoon.wav,"[2.5976000000000994,2.7146000000000896,2.7456000000000955,2.8419999999999987,2.993399999999909,3.120800000000287,3.3654999999999973,3.526899999999884,3.6482000000001875,3.7176000000000755]","[null,null,null,null,null,null,null,null,null,null]",,,,,,,,
,,,60594,001,2025-01-20_16h43.32.025,generalizability_mini,2023.2.2,Win32,163.9344262,,,,,,,,,,,,,,,,,,,,,,,,,,,,,,,,,,,,,,,,,,,,,,,,,,,,,,,,,,,,,,,,,,,,,,,,,,108.1793,111.0017,koradan,"[""k"",""o"",""r"",""a"",""d"",""a"",""n"",""return""]",111.0018,111.5021,111.5021,112.0035,0,4,4,14,1,kora,dan,koradan,3,3_2.PNG,stems_all/3_2.PNG,,,zara_audio_files/koradan.wav,"[1.9023999999999148,1.9816999999997051,2.0660000000000025,2.1641999999997097,2.272999999999996,2.397699999999702,2.5176999999997065,2.8128999999998996]","[null,null,null,null,null,null,null,null]",,,,,,,,
,,,60594,001,2025-01-20_16h43.32.025,generalizability_mini,2023.2.2,Win32,163.9344262,,,,,,,,,,,,,,,,,,,,,,,,,,,,,,,,,,,,,,,,,,,,,,,,,,,,,,,,,,,,,,,,,,,,,,,,,,112.0037,115.3573,berkonem,"[""b"",""e"",""r"",""k"",""o"",""n"",""e"",""m"",""return""]",115.3574,115.8531,115.8532,116.35,0,5,5,7,1,berko,nem,berkonem,2,2_dim_sg.PNG,stems_all/2_dim_sg.PNG,,,zara_audio_files/berkonem.wav,"[2.1666000000000736,2.2949999999999875,2.4359999999999786,2.6117000000001838,2.702800000000252,3.0178999999998837,3.110700000000179,3.2073000000002594,3.3453000000002646]","[null,null,null,null,null,null,null,null,null]",,,,,,,,
,,,60594,001,2025-01-20_16h43.32.025,generalizability_mini,2023.2.2,Win32,163.9344262,,,,,,,,,,,,,,,,,,,,,,,,,,,,,,,,,,,,,,,,,,,,,,,,,,,,,,,,,,,,,,,,,,,,,,,,,,116.3502,120.8469,korberkonem,"[""b"",""e"",""r"",""k"",""o"",""n"",""e"",""m"",""return"",""k"",""o"",""r"",""a"",""N/A""]",120.847,121.3435,121.3435,121.8406,0,6,6,9,1,kora,nem,koranem,3,3_dim_sg.PNG,stems_all/3_dim_sg.PNG,,,zara_audio_files/koranem.wav,"[1.3420999999996184,1.4497999999998115,1.5042999999998017,1.597699999999719,1.6862999999997896,1.8395999999996206,1.9539999999999793,2.128899999999902,2.29849999999999,3.2501999999997224,3.3528999999998916,3.4500999999996225,3.546999999999997,4.118199999999717]","[null,null,null,null,null,null,null,null,null,null,null,null,null,null]",,,,,,,,
,,,60594,001,2025-01-20_16h43.32.025,generalizability_mini,2023.2.2,Win32,163.9344262,,,,,,,,,,,,,,,,,,,,,,,,,,,,,,,,,,,,,,,,,,,,,,,,,,,,,,,,,,,,,,,,,,,,,,,,,,121.8407,125.6774,berkonem,"[""b"",""e"",""r"",""k"",""o"",""n"",""e"",""m"",""return""]",125.6776,126.1739,126.1739,126.6711,0,7,7,5,1,berko,nem,berkonem,2,2_dim_sg.PNG,stems_all/2_dim_sg.PNG,,,zara_audio_files/berkonem.wav,"[2.5373999999999057,2.673600000000107,2.771000000000015,2.897700000000185,3.0674999999999955,3.4977999999998133,3.6016000000001043,3.698100000000096,3.8259999999999934]","[null,null,null,null,null,null,null,null,null]",,,,,,,,
,,,60594,001,2025-01-20_16h43.32.025,generalizability_mini,2023.2.2,Win32,163.9344262,,,,,,,,,,,,,,,,,,,,,,,,,,,,,,,,,,,,,,,,,,,,,,,,,,,,,,,,,,,,,,,,,,,,,,,,,,126.6713,129.4295,korasil,"[""k"",""o"",""r"",""a"",""s"",""i"",""l"",""return""]",129.4296,129.9257,129.9257,130.4243,0,8,8,17,1,kora,sil,korasil,3,3_2.PNG,stems_all/3_2.PNG,,,zara_audio_files/korasil.wav,"[1.5113999999999237,1.6001999999997452,1.6791999999997245,1.7753999999999053,2.2076999999997327,2.441199999999725,2.5260000000000105,2.752500000000026]","[null,null,null,null,null,null,null,null]",,,,,,,,
,,,60594,001,2025-01-20_16h43.32.025,generalizability_mini,2023.2.2,Win32,163.9344262,,,,,,,,,,,,,,,,,,,,,,,,,,,,,,,,,,,,,,,,,,,,,,,,,,,,,,,,,,,,,,,,,,,,,,,,,,130.4245,133.7386,balnem,"[""b"",""a"",""l"",""d"",""N/A"",""n"",""e"",""d"",""N/A"",""m"",""return""]",133.7387,134.2352,134.2352,134.7321,0,9,9,3,1,bal,nem,balnem,1,1_dim_sg.PNG,stems_all/1_dim_sg.PNG,,,zara_audio_files/balnem.wav,"[1.3076999999996985,1.4125999999996282,1.547299999999808,1.771199999999709,2.1402999999997974,2.32329999999979,2.4190999999996166,2.539699999999698,2.9471999999996967,3.1413999999998907,3.307299999999799]","[null,null,null,null,null,null,null,null,null,null,null]",,,,,,,,
,,,60594,001,2025-01-20_16h43.32.025,generalizability_mini,2023.2.2,Win32,163.9344262,,,,,,,,,,,,,,,,,,,,,,,,,,,,,,,,,,,,,,,,,,,,,,,,,,,,,,,,,,,,,,,,,,,,,,,,,,134.7323,137.3169,berkodan,"[""b"",""e"",""r"",""k"",""o"",""d"",""a"",""n"",""return""]",137.317,137.8126,137.8126,138.3151,0,10,10,13,1,berko,dan,berkodan,2,2_2.PNG,stems_all/2_2.PNG,,,zara_audio_files/berkodan.wav,"[1.7296000000000902,1.8536000000000854,1.9385000000000048,2.0028000000002635,2.0718000000002803,2.192899999999895,2.3079999999999927,2.4189999999999827,2.5808999999999003]","[null,null,null,null,null,null,null,null,null]",,,,,,,,
,,,60594,001,2025-01-20_16h43.32.025,generalizability_mini,2023.2.2,Win32,163.9344262,,,,,,,,,,,,,,,,,,,,,,,,,,,,,,,,,,,,,,,,,,,,,,,,,,,,,,,,,,,,,,,,,,,,,,,,,,138.3153,140.2601,balnem,"[""b"",""a"",""l"",""n"",""e"",""m"",""return""]",140.2602,140.7565,140.7565,141.2538,0,11,11,2,1,bal,nem,balnem,1,1_dim_sg.PNG,stems_all/1_dim_sg.PNG,,,zara_audio_files/balnem.wav,"[1.287899999999894,1.4003000000002714,1.4799999999999898,1.673200000000179,1.7680000000000007,1.8319999999999936,1.93589999999989]","[null,null,null,null,null,null,null]",,,,,,,,
,,,60594,001,2025-01-20_16h43.32.025,generalizability_mini,2023.2.2,Win32,163.9344262,,,,,,,,,,,,,,,,,,,,,,,,,,,,,,,,,,,,,,,,,,,,,,,,,,,,,,,,,,,,,,,,,,,,,,,,,,141.2539,142.7777,bal,"[""b"",""a"",""l"",""return""]",142.7777,143.2781,143.2781,143.7751,0,12,12,21,1,bal,none,bal,1,1.PNG,stems_all/1.PNG,,,zara_audio_files/bal.wav,"[1.2011999999997443,1.2941999999997336,1.3770999999996434,1.5123999999999285]","[null,null,null,null]",,,,,,,,
,,,60594,001,2025-01-20_16h43.32.025,generalizability_mini,2023.2.2,Win32,163.9344262,,,,,,,,,,,,,,,,,,,,,,,,,,,,,,,,,,,,,,,,,,,,,,,,,,,,,,,,,,,,,,,,,,,,,,,,,,143.7753,148.2727,belnem,"[""b"",""e"",""l"",""n"",""e"",""m"",""return""]",148.2728,148.7694,148.7694,149.2664,0,13,13,18,1,bal,shoon,balshoon,1,1_dim_sg.PNG,stems_all/1_dim_sg.PNG,,,zara_audio_files/balshoon.wav,"[0.9451999999997156,1.0631999999997106,1.127199999999732,1.2719999999999914,1.383799999999809,1.4960000000000093,1.575599999999639]","[null,null,null,null,null,null,null]",,,,,,,,
,,,60594,001,2025-01-20_16h43.32.025,generalizability_mini,2023.2.2,Win32,163.9344262,,,,,,,,,,,,,,,,,,,,,,,,,,,,,,,,,,,,,,,,,,,,,,,,,,,,,,,,,,,,,,,,,,,,,,,,,,149.2666,153.1056,koranem,"[""k"",""o"",""r"",""a"",""n"",""e"",""m"",""return""]",153.1056,153.6023,153.6023,154.0984,0,14,14,10,1,kora,nem,koranem,3,3_dim_sg.PNG,stems_all/3_dim_sg.PNG,,,zara_audio_files/koranem.wav,"[2.8461000000000922,2.930999999999983,3.0279999999999916,3.1227000000001794,3.3672999999998012,3.5246000000000777,3.6597000000001856,3.8341000000000918]","[null,null,null,null,null,null,null,null]",,,,,,,,
,,,60594,001,2025-01-20_16h43.32.025,generalizability_mini,2023.2.2,Win32,163.9344262,,,,,,,,,,,,,,,,,,,,,,,,,,,,,,,,,,,,,,,,,,,,,,,,,,,,,,,,,,,,,,,,,,,,,,,,,,154.0985,157.021,berkosil,"[""b"",""e"",""r"",""k"",""o"",""s"",""i"",""l"",""return""]",157.021,157.5211,157.5212,158.0183,0,15,15,16,1,berko,sil,berkosil,2,2_2.PNG,stems_all/2_2.PNG,,,zara_audio_files/berkosil.wav,"[1.529100000000085,1.632000000000005,1.7832000000001926,1.88900000000001,1.96120000000019,2.5095000000000027,2.6257000000001938,2.6974000000003855,2.9156000000000972]","[null,null,null,null,null,null,null,null,null]",,,,,,,,
,,,60594,001,2025-01-20_16h43.32.025,generalizability_mini,2023.2.2,Win32,163.9344262,,,,,,,,,,,,,,,,,,,,,,,,,,,,,,,,,,,,,,,,,,,,,,,,,,,,,,,,,,,,,,,,,,,,,,,,,,158.0184,162.5173,,,162.5173,163.0211,163.0211,163.5216,0,16,16,19,1,berko,shoon,berkoshoon,2,2_dim_sg.PNG,stems_all/2_dim_sg.PNG,,,zara_audio_files/berkoshoon.wav,,,,,,,,,,
,,,60594,001,2025-01-20_16h43.32.025,generalizability_mini,2023.2.2,Win32,163.9344262,,,,,,,,,,,,,,,,,,,,,,,,,,,,,,,,,,,,,,,,,,,,,,,,,,,,,,,,,,,,,,,,,,,,,,,,,,163.5217,167.5162,koranem,"[""b"",""N/A"",""k"",""o"",""r"",""a"",""n"",""e"",""m"",""return""]",167.5162,168.0127,168.0127,168.5097,0,17,17,11,1,kora,nem,koranem,3,3_dim_sg.PNG,stems_all/3_dim_sg.PNG,,,zara_audio_files/koranem.wav,"[2.230600000000095,2.619199999999722,3.125299999999811,3.205199999999735,3.285299999999836,3.4375,3.6613999999999294,3.758299999999821,3.870799999999832,3.981299999999834]","[null,null,null,null,null,null,null,null,null,null]",,,,,,,,
,,,60594,001,2025-01-20_16h43.32.025,generalizability_mini,2023.2.2,Win32,163.9344262,,,,,,,,,,,,,,,,,,,,,,,,,,,,,,,,,,,,,,,,,,,,,,,,,,,,,,,,,,,,,,,,,,,,,,,,,,168.5099,171.5165,kora,"[""b"",""N/A"",""k"",""o"",""r"",""a"",""return""]",171.5165,172.0129,172.0129,172.5113,0,18,18,23,1,kora,none,kora,3,3.PNG,stems_all/3.PNG,,,zara_audio_files/kora.wav,"[1.6778000000002748,2.2841000000000804,2.6051000000000784,2.7022000000001754,2.77639999999991,2.895800000000264,2.9962000000001865]","[null,null,null,null,null,null,null]",,,,,,,,
,,,60594,001,2025-01-20_16h43.32.025,generalizability_mini,2023.2.2,Win32,163.9344262,,,,,,,,,,,,,,,,,,,,,,,,,,,,,,,,,,,,,,,,,,,,,,,,,,,,,,,,,,,,,,,,,,,,,,,,,,172.5116,177.0091,berko],"[""b"",""e"",""r"",""k"",""o"",""bracketright"",""return"",""N/A"",""N/A""]",177.0091,177.5102,177.5102,178.0074,0,19,19,4,1,berko,nem,berkonem,2,2_dim_sg.PNG,stems_all/2_dim_sg.PNG,,,zara_audio_files/berkonem.wav,"[1.3167000000001678,1.406200000000183,1.4851000000000738,1.5819999999999936,1.6731000000000904,1.8681000000000836,1.884999999999991,2.7835000000000036,4.427900000000363]","[null,null,null,null,null,null,null,null,null]",,,,,,,,
,,,60594,001,2025-01-20_16h43.32.025,generalizability_mini,2023.2.2,Win32,163.9344262,,,,,,,,,,,,,,,,,,,,,,,,,,,,,,,,,,,,,,,,,,,,,,,,,,,,,,,,,,,,,,,,,,,,,,,,,,178.0075,181.8706,koranem,"[""k"",""o"",""r"",""a"",""n"",""e"",""m"",""return""]",181.8707,182.3666,182.3666,182.868,0,20,20,8,1,kora,nem,koranem,3,3_dim_sg.PNG,stems_all/3_dim_sg.PNG,,,zara_audio_files/koranem.wav,"[3.1208999999999207,3.175700000000205,3.2906000000000972,3.3777000000002033,3.5208999999999264,3.636299999999835,3.729700000000207,3.8542000000001906]","[null,null,null,null,null,null,null,null]",,,,,,,,
,,,60594,001,2025-01-20_16h43.32.025,generalizability_mini,2023.2.2,Win32,163.9344262,,,,,,,,,,,,,,,,,,,,,,,,,,,,,,,,,,,,,,,,,,,,,,,,,,,,,,,,,,,,,,,,,,,,,,,,,,182.8682,187.367,,,187.367,187.8684,187.8684,188.3653,0,21,21,0,1,bal,nem,balnem,1,1_dim_sg.PNG,stems_all/1_dim_sg.PNG,,,zara_audio_files/balnem.wav,,,,,,,,,,
,,,60594,001,2025-01-20_16h43.32.025,generalizability_mini,2023.2.2,Win32,163.9344262,,,,,,,,,,,,,,,,,,,,,,,,,,,,,,,,,,,,,,,,,,,,,,,,,,,,,,,,,,,,,,,,,,,,,,,,,,188.3655,190.9478,balsil,"[""b"",""l"",""N/A"",""a"",""l"",""s"",""i"",""l"",""return""]",190.9478,191.4444,191.4444,191.9412,0,22,22,15,1,bal,sil,balsil,1,1_2.PNG,stems_all/1_2.PNG,,,zara_audio_files/balsil.wav,"[1.179299999999813,1.315799999999797,1.7202999999998099,1.8412999999998192,1.969099999999628,2.242500000000007,2.3392999999998096,2.4003999999994505,2.571899999999431]","[null,null,null,null,null,null,null,null,null]",,,,,,,,
,,,60594,001,2025-01-20_16h43.32.025,generalizability_mini,2023.2.2,Win32,163.9344262,,,,,,,,,,,,,,,,,,,,,,,,,,,,,,,,,,,,,,,,,,,,,,,,,,,,,,,,,,,,,,,,,,,,,,,,,,191.9413,196.4393,berko,"[""b"",""e"",""r"",""k"",""o"",""return""]",196.4393,196.9359,196.9359,197.4326,0,23,23,6,1,berko,nem,berkonem,2,2_dim_sg.PNG,stems_all/2_dim_sg.PNG,,,zara_audio_files/berkonem.wav,"[1.1648000000007528,1.2620000000000005,1.365000000000009,1.4698000000007596,1.4927000000002124,1.692700000000201]","[null,null,null,null,null,null]",,,,,,,,
,,,60594,001,2025-01-20_16h43.32.025,generalizability_mini,2023.2.2,Win32,163.9344262,,,,,,,,,,,,,,,,,,,,,,,,,,,,,,,,,,,,,,,,,,,,,,,,,,,,,,,,,,,,,,,,,,,,,,,,,,197.4329,199.1261,berkonem,"[""b"",""e"",""r"",""k"",""o"",""n"",""e"",""m"",""return""]",199.1262,199.6279,199.6279,200.1236,1,0,24,4,1,berko,nem,berkonem,2,2_dim_sg.PNG,stems_all/2_dim_sg.PNG,,,zara_audio_files/berkonem.wav,"[0.9091000000005636,0.9996000000005552,1.1041000000005567,1.181400000000366,1.2692000000001826,1.4375,1.5193000000007544,1.6225000000000023,1.6891000000005647]","[null,null,null,null,null,null,null,null,null]",,,,,,,,
,,,60594,001,2025-01-20_16h43.32.025,generalizability_mini,2023.2.2,Win32,163.9344262,,,,,,,,,,,,,,,,,,,,,,,,,,,,,,,,,,,,,,,,,,,,,,,,,,,,,,,,,,,,,,,,,,,,,,,,,,200.1238,204.0227,berkoshoon,"[""b"",""e"",""r"",""n"",""k"",""o"",""N/A"",""N/A"",""N/A"",""k"",""o"",""s"",""h"",""o"",""o"",""n"",""return""]",204.0227,204.5239,204.5239,205.0208,1,1,25,19,1,berko,shoon,berkoshoon,2,2_dim_sg.PNG,stems_all/2_dim_sg.PNG,,,zara_audio_files/berkoshoon.wav,"[0.7714000000003693,0.8640000000000043,0.9507000000001824,1.070400000000376,1.2180000000000177,1.326799999999821,1.9105000000000132,2.1935000000000002,2.334299999999814,2.718500000000006,2.7986000000005617,3.1391000000005533,3.3632999999998106,3.5147000000002038,3.6666000000005567,3.7826000000005706,3.890799999999814]","[null,null,null,null,null,null,null,null,null,null,null,null,null,null,null,null,null]",,,,,,,,
,,,60594,001,2025-01-20_16h43.32.025,generalizability_mini,2023.2.2,Win32,163.9344262,,,,,,,,,,,,,,,,,,,,,,,,,,,,,,,,,,,,,,,,,,,,,,,,,,,,,,,,,,,,,,,,,,,,,,,,,,205.0211,208.4826,korasil,"[""k"",""o"",""r"",""a"",""s"",""i"",""l"",""return""]",208.4827,208.9785,208.9786,209.4755,1,2,26,17,1,kora,sil,korasil,3,3_2.PNG,stems_all/3_2.PNG,,,zara_audio_files/korasil.wav,"[2.2855999999996186,2.383899999999443,2.473599999999635,2.5732999999998185,2.8935999999996227,3.0020000000000095,3.070299999999804,3.453399999999448]","[null,null,null,null,null,null,null,null]",,,,,,,,
,,,60594,001,2025-01-20_16h43.32.025,generalizability_mini,2023.2.2,Win32,163.9344262,,,,,,,,,,,,,,,,,,,,,,,,,,,,,,,,,,,,,,,,,,,,,,,,,,,,,,,,,,,,,,,,,,,,,,,,,,209.4756,211.5428,berkonem,"[""b"",""e"",""r"",""k"",""o"",""n"",""e"",""m"",""return""]",211.5429,212.0394,212.0394,212.5364,1,3,27,5,1,berko,nem,berkonem,2,2_dim_sg.PNG,stems_all/2_dim_sg.PNG,,,zara_audio_files/berkonem.wav,"[1.1660999999996307,1.2797000000001901,1.3588999999994371,1.4557000000001779,1.5345999999996138,1.7740999999996063,1.862499999999983,1.9740999999996234,2.055799999999806]","[null,null,null,null,null,null,null,null,null]",,,,,,,,
,,,60594,001,2025-01-20_16h43.32.025,generalizability_mini,2023.2.2,Win32,163.9344262,,,,,,,,,,,,,,,,,,,,,,,,,,,,,,,,,,,,,,,,,,,,,,,,,,,,,,,,,,,,,,,,,,,,,,,,,,212.5365,214.4785,kora,"[""k"",""o"",""r"",""a"",""return""]",214.4786,214.9802,214.9802,215.4758,1,4,28,23,1,kora,none,kora,3,3.PNG,stems_all/3.PNG,,,zara_audio_files/kora.wav,"[1.4623999999994624,1.5657999999998253,1.710000000000008,1.7988999999994633,1.9383999999994614]","[null,null,null,null,null]",,,,,,,,
,,,60594,001,2025-01-20_16h43.32.025,generalizability_mini,2023.2.2,Win32,163.9344262,,,,,,,,,,,,,,,,,,,,,,,,,,,,,,,,,,,,,,,,,,,,,,,,,,,,,,,,,,,,,,,,,,,,,,,,,,215.476,218.1865,balnem,"[""b"",""a"",""l"",""n"",""e"",""m"",""return""]",218.1865,218.6823,218.6823,219.1792,1,5,29,2,1,bal,nem,balnem,1,1_dim_sg.PNG,stems_all/1_dim_sg.PNG,,,zara_audio_files/balnem.wav,"[0.9979999999999905,1.109799999999808,1.2456999999992604,2.2457999999998037,2.3177999999998065,2.445799999999821,2.702099999999632]","[null,null,null,null,null,null,null]",,,,,,,,
,,,60594,001,2025-01-20_16h43.32.025,generalizability_mini,2023.2.2,Win32,163.9344262,,,,,,,,,,,,,,,,,,,,,,,,,,,,,,,,,,,,,,,,,,,,,,,,,,,,,,,,,,,,,,,,,,,,,,,,,,219.1793,222.5091,koranem,"[""k"",""o"",""r"",""a"",""n"",""e"",""m"",""return""]",222.5091,223.0051,223.0051,223.5032,1,6,30,9,1,kora,nem,koranem,3,3_dim_sg.PNG,stems_all/3_dim_sg.PNG,,,zara_audio_files/koranem.wav,"[2.483700000000198,2.647200000000197,2.7564999999999884,2.859499999999997,2.992999999999995,3.126299999999816,3.192900000000378,3.3260999999996272]","[null,null,null,null,null,null,null,null]",,,,,,,,
,,,60594,001,2025-01-20_16h43.32.025,generalizability_mini,2023.2.2,Win32,163.9344262,,,,,,,,,,,,,,,,,,,,,,,,,,,,,,,,,,,,,,,,,,,,,,,,,,,,,,,,,,,,,,,,,,,,,,,,,,223.5033,226.5583,koranem,"[""k"",""o"",""r"",""e"",""N/A"",""a"",""n"",""e"",""m"",""return""]",226.5583,227.0539,227.0539,227.5507,1,7,31,10,1,kora,nem,koranem,3,3_dim_sg.PNG,stems_all/3_dim_sg.PNG,,,zara_audio_files/koranem.wav,"[1.484499999999997,1.5879999999999939,1.6604000000003794,1.820100000000565,2.22799999999998,2.3883000000007257,2.524600000000561,2.6391000000005533,2.7519000000003757,3.048100000000545]","[null,null,null,null,null,null,null,null,null,null]",,,,,,,,
,,,60594,001,2025-01-20_16h43.32.025,generalizability_mini,2023.2.2,Win32,163.9344262,,,,,,,,,,,,,,,,,,,,,,,,,,,,,,,,,,,,,,,,,,,,,,,,,,,,,,,,,,,,,,,,,,,,,,,,,,227.5508,230.9877,koradan,"[""b"",""N/A"",""k"",""o"",""r"",""a"",""d"",""a"",""n"",""return""]",230.9877,231.4905,231.4905,231.9918,1,8,32,14,1,kora,dan,koradan,3,3_2.PNG,stems_all/3_2.PNG,,,zara_audio_files/koradan.wav,"[1.2003999999994335,1.8792999999998017,2.5243999999994458,2.6127000000001885,2.721499999999992,2.8243999999994287,3.00970000000018,3.09220000000019,3.219899999999427,3.430000000000007]","[null,null,null,null,null,null,null,null,null,null]",,,,,,,,
,,,60594,001,2025-01-20_16h43.32.025,generalizability_mini,2023.2.2,Win32,163.9344262,,,,,,,,,,,,,,,,,,,,,,,,,,,,,,,,,,,,,,,,,,,,,,,,,,,,,,,,,,,,,,,,,,,,,,,,,,231.9921,236.4895,berko,"[""b"",""e"",""r"",""k"",""o"",""return""]",236.4895,236.9861,236.9862,237.483,1,9,33,6,1,berko,nem,berkonem,2,2_dim_sg.PNG,stems_all/2_dim_sg.PNG,,,zara_audio_files/berkonem.wav,"[1.3162000000001797,1.3951000000005536,1.4824999999999875,1.5311000000005492,1.588499999999982,1.730200000000167]","[null,null,null,null,null,null]",,,,,,,,
,,,60594,001,2025-01-20_16h43.32.025,generalizability_mini,2023.2.2,Win32,163.9344262,,,,,,,,,,,,,,,,,,,,,,,,,,,,,,,,,,,,,,,,,,,,,,,,,,,,,,,,,,,,,,,,,,,,,,,,,,237.4832,240.1643,berkodan,"[""b"",""e"",""r"",""k"",""o"",""d"",""a"",""n"",""return""]",240.1645,240.6619,240.6619,241.1621,1,10,34,13,1,berko,dan,berkodan,2,2_2.PNG,stems_all/2_2.PNG,,,zara_audio_files/berkodan.wav,"[1.4004000000003884,1.4627000000002113,1.557800000000782,1.6426000000005843,1.739700000000198,2.310800000000768,2.398600000000556,2.5095000000000027,2.672800000000734]","[null,null,null,null,null,null,null,null,null]",,,,,,,,
,,,60594,001,2025-01-20_16h43.32.025,generalizability_mini,2023.2.2,Win32,163.9344262,,,,,,,,,,,,,,,,,,,,,,,,,,,,,,,,,,,,,,,,,,,,,,,,,,,,,,,,,,,,,,,,,,,,,,,,,,241.1623,244.4234,baldan,"[""b"",""a"",""l"",""d"",""a"",""n"",""return""]",244.4235,244.92,244.9201,245.417,1,11,35,12,1,bal,dan,baldan,1,1_2.PNG,stems_all/1_2.PNG,,,zara_audio_files/baldan.wav,"[2.2517000000001985,2.336799999999812,2.5447999999998387,2.8805999999996743,2.97840000000042,3.0887000000001876,3.250500000000045]","[null,null,null,null,null,null,null]",,,,,,,,
,,,60594,001,2025-01-20_16h43.32.025,generalizability_mini,2023.2.2,Win32,163.9344262,,,,,,,,,,,,,,,,,,,,,,,,,,,,,,,,,,,,,,,,,,,,,,,,,,,,,,,,,,,,,,,,,,,,,,,,,,245.4172,249.9147,balsil,"[""b"",""a"",""l"",""s"",""i"",""l"",""return""]",249.9147,250.4125,250.4125,250.9108,1,12,36,18,1,bal,shoon,balshoon,1,1_dim_sg.PNG,stems_all/1_dim_sg.PNG,,,zara_audio_files/balshoon.wav,"[1.1135999999996216,1.1888999999994212,1.3500999999996566,1.4530999999996084,1.5409999999999968,1.6128999999994562,1.757599999999627]","[null,null,null,null,null,null,null]",,,,,,,,
,,,60594,001,2025-01-20_16h43.32.025,generalizability_mini,2023.2.2,Win32,163.9344262,,,,,,,,,,,,,,,,,,,,,,,,,,,,,,,,,,,,,,,,,,,,,,,,,,,,,,,,,,,,,,,,,,,,,,,,,,250.9109,255.4118,berko,"[""b"",""e"",""r"",""k"",""o"",""return""]",255.4119,255.9085,255.9085,256.4053,1,13,37,20,1,kora,shoon,korashoon,3,3_dim_sg.PNG,stems_all/3_dim_sg.PNG,,,zara_audio_files/korashoon.wav,"[1.302599999999586,1.3967999999998142,1.502700000000175,1.5694000000003712,1.6477999999997905,1.780999999999949]","[null,null,null,null,null,null]",,,,,,,,
,,,60594,001,2025-01-20_16h43.32.025,generalizability_mini,2023.2.2,Win32,163.9344262,,,,,,,,,,,,,,,,,,,,,,,,,,,,,,,,,,,,,,,,,,,,,,,,,,,,,,,,,,,,,,,,,,,,,,,,,,256.4056,260.9031,bal,"[""b"",""a"",""l"",""return""]",260.9032,261.3997,261.3997,261.8967,1,14,38,0,1,bal,nem,balnem,1,1_dim_sg.PNG,stems_all/1_dim_sg.PNG,,,zara_audio_files/balnem.wav,"[1.2552000000001726,1.3337000000001922,1.4669000000003507,1.620600000000536]","[null,null,null,null]",,,,,,,,
,,,60594,001,2025-01-20_16h43.32.025,generalizability_mini,2023.2.2,Win32,163.9344262,,,,,,,,,,,,,,,,,,,,,,,,,,,,,,,,,,,,,,,,,,,,,,,,,,,,,,,,,,,,,,,,,,,,,,,,,,261.8969,265.148,berkosil,"[""b"",""e"",""r"",""k"",""o"",""s"",""i"",""l"",""return""]",265.148,265.6452,265.6452,266.1453,1,15,39,16,1,berko,sil,berkosil,2,2_2.PNG,stems_all/2_2.PNG,,,zara_audio_files/berkosil.wav,"[2.1777000000001863,2.2411000000005856,2.340000000000032,2.395300000000759,2.5156000000005747,2.673100000000545,2.758000000000038,2.836999999999989,3.242700000000184]","[null,null,null,null,null,null,null,null,null]",,,,,,,,
,,,60594,001,2025-01-20_16h43.32.025,generalizability_mini,2023.2.2,Win32,163.9344262,,,,,,,,,,,,,,,,,,,,,,,,,,,,,,,,,,,,,,,,,,,,,,,,,,,,,,,,,,,,,,,,,,,,,,,,,,266.1455,267.6996,berko,"[""b"",""e"",""r"",""k"",""o"",""return""]",267.6997,268.1964,268.1964,268.7015,1,16,40,22,1,berko,none,berko,2,2.PNG,stems_all/2.PNG,,,zara_audio_files/berko.wav,"[1.0161999999992304,1.112399999999468,1.1882999999997992,1.2404999999999973,1.3578999999994608,1.5456999999992718]","[null,null,null,null,null,null]",,,,,,,,
,,,60594,001,2025-01-20_16h43.32.025,generalizability_mini,2023.2.2,Win32,163.9344262,,,,,,,,,,,,,,,,,,,,,,,,,,,,,,,,,,,,,,,,,,,,,,,,,,,,,,,,,,,,,,,,,,,,,,,,,,268.7018,270.1967,bal,"[""b"",""a"",""l"",""return""]",270.1967,270.697,270.697,271.194,1,17,41,21,1,bal,none,bal,1,1.PNG,stems_all/1.PNG,,,zara_audio_files/bal.wav,"[1.159799999999791,1.2542000000001963,1.3693999999994162,1.4904999999999973]","[null,null,null,null]",,,,,,,,
,,,60594,001,2025-01-20_16h43.32.025,generalizability_mini,2023.2.2,Win32,163.9344262,,,,,,,,,,,,,,,,,,,,,,,,,,,,,,,,,,,,,,,,,,,,,,,,,,,,,,,,,,,,,,,,,,,,,,,,,,271.1941,274.5886,koranem,"[""k"",""o"",""r"",""a"",""n"",""e"",""m"",""return""]",274.5887,275.087,275.087,275.5909,1,18,42,8,1,kora,nem,koranem,3,3_dim_sg.PNG,stems_all/3_dim_sg.PNG,,,zara_audio_files/koranem.wav,"[2.6976999999992586,2.7875999999995997,2.8725999999995793,2.958799999999769,3.0963999999993916,3.2145999999996206,3.2846999999992477,3.382799999999804]","[null,null,null,null,null,null,null,null]",,,,,,,,
,,,60594,001,2025-01-20_16h43.32.025,generalizability_mini,2023.2.2,Win32,163.9344262,,,,,,,,,,,,,,,,,,,,,,,,,,,,,,,,,,,,,,,,,,,,,,,,,,,,,,,,,,,,,,,,,,,,,,,,,,275.591,280.0878,balsil,"[""b"",""a"",""l"",""s"",""i"",""l"",""return""]",280.0879,280.5851,280.5852,281.0874,1,19,43,1,1,bal,nem,balnem,1,1_dim_sg.PNG,stems_all/1_dim_sg.PNG,,,zara_audio_files/balnem.wav,"[1.2232999999997674,1.2919999999999732,1.4599999999999795,1.629099999999596,1.6960999999996034,1.7684999999999604,2.1017999999997983]","[null,null,null,null,null,null,null]",,,,,,,,
,,,60594,001,2025-01-20_16h43.32.025,generalizability_mini,2023.2.2,Win32,163.9344262,,,,,,,,,,,,,,,,,,,,,,,,,,,,,,,,,,,,,,,,,,,,,,,,,,,,,,,,,,,,,,,,,,,,,,,,,,281.0875,285.5891,,,285.5892,286.0859,286.086,286.583,1,20,44,3,1,bal,nem,balnem,1,1_dim_sg.PNG,stems_all/1_dim_sg.PNG,,,zara_audio_files/balnem.wav,,,,,,,,,,
,,,60594,001,2025-01-20_16h43.32.025,generalizability_mini,2023.2.2,Win32,163.9344262,,,,,,,,,,,,,,,,,,,,,,,,,,,,,,,,,,,,,,,,,,,,,,,,,,,,,,,,,,,,,,,,,,,,,,,,,,286.5831,291.0803,,,291.0804,291.577,291.577,292.0738,1,21,45,15,1,bal,sil,balsil,1,1_2.PNG,stems_all/1_2.PNG,,,zara_audio_files/balsil.wav,,,,,,,,,,
,,,60594,001,2025-01-20_16h43.32.025,generalizability_mini,2023.2.2,Win32,163.9344262,,,,,,,,,,,,,,,,,,,,,,,,,,,,,,,,,,,,,,,,,,,,,,,,,,,,,,,,,,,,,,,,,,,,,,,,,,292.074,296.5731,,,296.5731,297.0743,297.0743,297.5712,1,22,46,11,1,kora,nem,koranem,3,3_dim_sg.PNG,stems_all/3_dim_sg.PNG,,,zara_audio_files/koranem.wav,,,,,,,,,,
,,,60594,001,2025-01-20_16h43.32.025,generalizability_mini,2023.2.2,Win32,163.9344262,,,,,,,,,,,,,,,,,,,,,,,,,,,,,,,,,,,,,,,,,,,,,,,,,,,,,,,,,,,,,,,,,,,,,,,,,,297.5715,299.9301,berkonem,"[""b"",""e"",""r"",""k"",""o"",""n"",""e"",""m"",""return""]",299.9301,300.4259,300.4259,300.923,1,23,47,7,1,berko,nem,berkonem,2,2_dim_sg.PNG,stems_all/2_dim_sg.PNG,,,zara_audio_files/berkonem.wav,"[1.3192999999998278,1.3981000000005679,1.554600000000562,1.6937999999998397,1.80279999999982,2.035799999999824,2.155600000000561,2.242700000000184,2.346600000000592]","[null,null,null,null,null,null,null,null,null]",,,,,,,,
,,,60594,001,2025-01-20_16h43.32.025,generalizability_mini,2023.2.2,Win32,163.9344262,,,,,,,,,,,,,,,,,,,,,,,,,,,,,,,,,,,,,,,,,,,,,,,,,,,,,,,,,,,,,,,,,,,,,,,,,,300.9231,303.2604,berkonem,"[""b"",""e"",""r"",""k"",""o"",""n"",""e"",""m"",""return""]",303.2605,303.7607,303.7608,304.2581,2,0,48,4,1,berko,nem,berkonem,2,2_dim_sg.PNG,stems_all/2_dim_sg.PNG,,,zara_audio_files/berkonem.wav,"[0.9417999999997733,1.0360999999996352,1.1327000000001703,1.2177000000001499,1.3387999999998215,1.982599999999593,2.039099999999621,2.197700000000168,2.3280999999996084]","[null,null,null,null,null,null,null,null,null]",,,,,,,,
,,,60594,001,2025-01-20_16h43.32.025,generalizability_mini,2023.2.2,Win32,163.9344262,,,,,,,,,,,,,,,,,,,,,,,,,,,,,,,,,,,,,,,,,,,,,,,,,,,,,,,,,,,,,,,,,,,,,,,,,,304.2583,307.1061,balshoon,"[""b"",""a"",""l"",""s"",""h"",""o"",""o"",""n"",""return""]",307.1062,307.6038,307.6038,308.1016,2,1,49,18,1,bal,shoon,balshoon,1,1_dim_sg.PNG,stems_all/1_dim_sg.PNG,,,zara_audio_files/balshoon.wav,"[1.2010000000000218,1.2825999999996043,1.4332999999998037,2.291400000000351,2.4004000000003884,2.4809999999999945,2.649200000000178,2.739799999999832,2.841000000000008]","[null,null,null,null,null,null,null,null,null]",,,,,,,,
,,,60594,001,2025-01-20_16h43.32.025,generalizability_mini,2023.2.2,Win32,163.9344262,,,,,,,,,,,,,,,,,,,,,,,,,,,,,,,,,,,,,,,,,,,,,,,,,,,,,,,,,,,,,,,,,,,,,,,,,,308.1018,310.9793,koranem,"[""k"",""o"",""r"",""a"",""n"",""e"",""m"",""return""]",310.9793,311.4751,311.4751,311.9721,2,2,50,9,1,kora,nem,koranem,3,3_dim_sg.PNG,stems_all/3_dim_sg.PNG,,,zara_audio_files/koranem.wav,"[2.1750000000000114,2.2722000000001685,2.358299999999815,2.4540000000000077,2.569200000000194,2.673000000000002,2.7520000000000095,2.8697000000001935]","[null,null,null,null,null,null,null,null]",,,,,,,,
,,,60594,001,2025-01-20_16h43.32.025,generalizability_mini,2023.2.2,Win32,163.9344262,,,,,,,,,,,,,,,,,,,,,,,,,,,,,,,,,,,,,,,,,,,,,,,,,,,,,,,,,,,,,,,,,,,,,,,,,,311.9722,314.8367,balnem,"[""b"",""a"",""l"",""n"",""e"",""m"",""return""]",314.8368,315.336,315.336,315.8328,2,3,51,3,1,bal,nem,balnem,1,1_dim_sg.PNG,stems_all/1_dim_sg.PNG,,,zara_audio_files/balnem.wav,"[2.1990000000000123,2.2717000000001804,2.3940999999996393,2.5459000000003584,2.6474000000003457,2.72199999999998,2.8605999999996357]","[null,null,null,null,null,null,null]",,,,,,,,
,,,60594,001,2025-01-20_16h43.32.025,generalizability_mini,2023.2.2,Win32,163.9344262,,,,,,,,,,,,,,,,,,,,,,,,,,,,,,,,,,,,,,,,,,,,,,,,,,,,,,,,,,,,,,,,,,,,,,,,,,315.8329,317.9464,berkonem,"[""b"",""e"",""r"",""k"",""o"",""n"",""e"",""m"",""return""]",317.9464,318.4452,318.4452,318.9422,2,4,52,5,1,berko,nem,berkonem,2,2_dim_sg.PNG,stems_all/2_dim_sg.PNG,,,zara_audio_files/berkonem.wav,"[1.0395000000000323,1.1122999999998342,1.200900000000388,1.2559000000003948,1.344599999999673,1.8314000000003716,1.903599999999642,2.007400000000416,2.103799999999808]","[null,null,null,null,null,null,null,null,null]",,,,,,,,
,,,60594,001,2025-01-20_16h43.32.025,generalizability_mini,2023.2.2,Win32,163.9344262,,,,,,,,,,,,,,,,,,,,,,,,,,,,,,,,,,,,,,,,,,,,,,,,,,,,,,,,,,,,,,,,,,,,,,,,,,318.9423,322.1272,koranem,"[""k"",""o"",""r"",""a"",""n"",""e"",""m"",""return""]",322.1274,322.6228,322.6228,323.1208,2,5,53,10,1,kora,nem,koranem,3,3_dim_sg.PNG,stems_all/3_dim_sg.PNG,,,zara_audio_files/koranem.wav,"[2.382000000000005,2.5060999999996056,2.5930999999996516,2.69829999999979,2.805299999999818,2.9265999999996097,3.0052999999998065,3.175099999999645]","[null,null,null,null,null,null,null,null]",,,,,,,,
,,,60594,001,2025-01-20_16h43.32.025,generalizability_mini,2023.2.2,Win32,163.9344262,,,,,,,,,,,,,,,,,,,,,,,,,,,,,,,,,,,,,,,,,,,,,,,,,,,,,,,,,,,,,,,,,,,,,,,,,,323.121,324.3862,bal,"[""b"",""a"",""l"",""return""]",324.3863,324.8821,324.8821,325.3788,2,6,54,21,1,bal,none,bal,1,1.PNG,stems_all/1.PNG,,,zara_audio_files/bal.wav,"[0.9782000000001858,1.0360000000000014,1.1301000000005388,1.2582000000001585]","[null,null,null,null]",,,,,,,,
,,,60594,001,2025-01-20_16h43.32.025,generalizability_mini,2023.2.2,Win32,163.9344262,,,,,,,,,,,,,,,,,,,,,,,,,,,,,,,,,,,,,,,,,,,,,,,,,,,,,,,,,,,,,,,,,,,,,,,,,,325.3791,329.8767,berkonem,"[""b"",""e"",""r"",""k"",""o"",""n"",""e"",""m"",""return""]",329.8768,330.3733,330.3733,330.8701,2,7,55,19,1,berko,shoon,berkoshoon,2,2_dim_sg.PNG,stems_all/2_dim_sg.PNG,,,zara_audio_files/berkoshoon.wav,"[1.0285000000000082,1.1145999999996548,1.2040999999996416,1.302500000000009,1.3557999999998174,1.5690999999996507,1.6527999999998428,1.7385999999996784,1.8043999999994753]","[null,null,null,null,null,null,null,null,null]",,,,,,,,
,,,60594,001,2025-01-20_16h43.32.025,generalizability_mini,2023.2.2,Win32,163.9344262,,,,,,,,,,,,,,,,,,,,,,,,,,,,,,,,,,,,,,,,,,,,,,,,,,,,,,,,,,,,,,,,,,,,,,,,,,330.8703,333.6709,koranem,"[""k"",""o"",""r"",""a"",""n"",""e"",""m"",""return""]",333.671,334.1675,334.1675,334.6644,2,8,56,8,1,kora,nem,koranem,3,3_dim_sg.PNG,stems_all/3_dim_sg.PNG,,,zara_audio_files/koranem.wav,"[2.1826999999992722,2.2705999999996607,2.3505999999996448,2.41700000000003,2.5106999999992468,2.6304999999999836,2.70259999999962,2.7948999999994726]","[null,null,null,null,null,null,null,null]",,,,,,,,
,,,60594,001,2025-01-20_16h43.32.025,generalizability_mini,2023.2.2,Win32,163.9344262,,,,,,,,,,,,,,,,,,,,,,,,,,,,,,,,,,,,,,,,,,,,,,,,,,,,,,,,,,,,,,,,,,,,,,,,,,334.6645,339.1621,balbalsil,"[""b"",""a"",""l"",""s"",""i"",""l"",""return"",""b"",""a"",""l""]",339.1622,339.6589,339.6589,340.1555,2,9,57,2,1,bal,nem,balnem,1,1_dim_sg.PNG,stems_all/1_dim_sg.PNG,,,zara_audio_files/balnem.wav,"[1.0787000000001967,1.1271000000005529,1.2694999999999936,1.631100000000572,1.7416000000005738,1.8136000000005197,1.9817999999997937,4.141700000000185,4.24570000000017,4.34160000000054]","[null,null,null,null,null,null,null,null,null,null]",,,,,,,,
,,,60594,001,2025-01-20_16h43.32.025,generalizability_mini,2023.2.2,Win32,163.9344262,,,,,,,,,,,,,,,,,,,,,,,,,,,,,,,,,,,,,,,,,,,,,,,,,,,,,,,,,,,,,,,,,,,,,,,,,,340.1558,341.7984,balnem,"[""b"",""a"",""l"",""n"",""e"",""m"",""return""]",341.7984,342.2951,342.2951,342.7919,2,10,58,1,1,bal,nem,balnem,1,1_dim_sg.PNG,stems_all/1_dim_sg.PNG,,,zara_audio_files/balnem.wav,"[0.8841000000005579,0.9956000000005929,1.066000000000031,1.353900000000408,1.4421000000005506,1.5458000000007814,1.634600000000603]","[null,null,null,null,null,null,null]",,,,,,,,
,,,60594,001,2025-01-20_16h43.32.025,generalizability_mini,2023.2.2,Win32,163.9344262,,,,,,,,,,,,,,,,,,,,,,,,,,,,,,,,,,,,,,,,,,,,,,,,,,,,,,,,,,,,,,,,,,,,,,,,,,342.792,345.2612,berkonem,"[""b"",""e"",""r"",""k"",""o"",""n"",""e"",""m"",""return""]",345.2613,345.7572,345.7572,346.2557,2,11,59,7,1,berko,nem,berkonem,2,2_dim_sg.PNG,stems_all/2_dim_sg.PNG,,,zara_audio_files/berkonem.wav,"[1.2361000000005333,1.3929000000003384,1.635200000000168,1.871499999999969,1.9699000000003366,2.168800000000715,2.283700000000181,2.3626000000005547,2.4656000000005633]","[null,null,null,null,null,null,null,null,null]",,,,,,,,
,,,60594,001,2025-01-20_16h43.32.025,generalizability_mini,2023.2.2,Win32,163.9344262,,,,,,,,,,,,,,,,,,,,,,,,,,,,,,,,,,,,,,,,,,,,,,,,,,,,,,,,,,,,,,,,,,,,,,,,,,346.2559,349.4132,korashoon,"[""k"",""o"",""r"",""a"",""s"",""h"",""o"",""o"",""n"",""return""]",349.4132,349.9091,349.9091,350.4061,2,12,60,20,1,kora,shoon,korashoon,3,3_dim_sg.PNG,stems_all/3_dim_sg.PNG,,,zara_audio_files/korashoon.wav,"[2.1092999999997915,2.2307999999998174,2.305599999999629,2.4037000000001854,2.596200000000181,2.684299999999837,2.7717000000001804,2.9328999999994494,3.0478999999994585,3.1510000000000105]","[null,null,null,null,null,null,null,null,null,null]",,,,,,,,
,,,60594,001,2025-01-20_16h43.32.025,generalizability_mini,2023.2.2,Win32,163.9344262,,,,,,,,,,,,,,,,,,,,,,,,,,,,,,,,,,,,,,,,,,,,,,,,,,,,,,,,,,,,,,,,,,,,,,,,,,350.4063,353.3964,kora,"[""b"",""k"",""o"",""r"",""N/A"",""N/A"",""N/A"",""N/A"",""k"",""o"",""r"",""a"",""return""]",353.3965,353.8984,353.8984,354.3943,2,13,61,23,1,kora,none,kora,3,3.PNG,stems_all/3.PNG,,,zara_audio_files/kora.wav,"[1.0559999999999832,1.30929999999978,1.3889000000003762,1.5034000000003402,1.733599999999626,1.903099999999597,2.048799999999801,2.2062999999997714,2.6429000000003384,2.700999999999965,2.7654000000003407,2.8624000000003775,2.9834000000003584]","[null,null,null,null,null,null,null,null,null,null,null,null,null]",,,,,,,,
,,,60594,001,2025-01-20_16h43.32.025,generalizability_mini,2023.2.2,Win32,163.9344262,,,,,,,,,,,,,,,,,,,,,,,,,,,,,,,,,,,,,,,,,,,,,,,,,,,,,,,,,,,,,,,,,,,,,,,,,,354.3944,357.8211,berkodan,"[""b"",""e"",""r"",""k"",""o"",""d"",""a"",""n"",""return""]",357.8211,358.3169,358.3169,358.817,2,14,62,13,1,berko,dan,berkodan,2,2_2.PNG,stems_all/2_2.PNG,,,zara_audio_files/berkodan.wav,"[1.3050999999996407,1.385299999999802,1.4851999999992245,2.040999999999997,2.1337999999997805,2.9532999999997855,3.080599999999606,3.2439999999999714,3.419999999999959]","[null,null,null,null,null,null,null,null,null]",,,,,,,,
,,,60594,001,2025-01-20_16h43.32.025,generalizability_mini,2023.2.2,Win32,163.9344262,,,,,,,,,,,,,,,,,,,,,,,,,,,,,,,,,,,,,,,,,,,,,,,,,,,,,,,,,,,,,,,,,,,,,,,,,,358.8173,363.315,berkodan,"[""b"",""e"",""r"",""k"",""o"",""d"",""a"",""n"",""return""]",363.3151,363.8114,363.8114,364.3083,2,15,63,16,1,berko,sil,berkosil,2,2_2.PNG,stems_all/2_2.PNG,,,zara_audio_files/berkosil.wav,"[1.1682999999998174,1.2880999999996448,1.424299999999846,1.5362000000002354,1.608099999999638,1.8730999999996243,1.976500000000044,2.073799999999835,2.2003999999994903]","[null,null,null,null,null,null,null,null,null]",,,,,,,,
,,,60594,001,2025-01-20_16h43.32.025,generalizability_mini,2023.2.2,Win32,163.9344262,,,,,,,,,,,,,,,,,,,,,,,,,,,,,,,,,,,,,,,,,,,,,,,,,,,,,,,,,,,,,,,,,,,,,,,,,,364.3086,368.8059,,,368.8059,369.3025,369.3025,369.7993,2,16,64,14,1,kora,dan,koradan,3,3_2.PNG,stems_all/3_2.PNG,,,zara_audio_files/koradan.wav,,,,,,,,,,
,,,60594,001,2025-01-20_16h43.32.025,generalizability_mini,2023.2.2,Win32,163.9344262,,,,,,,,,,,,,,,,,,,,,,,,,,,,,,,,,,,,,,,,,,,,,,,,,,,,,,,,,,,,,,,,,,,,,,,,,,369.7996,374.2972,,,374.2973,374.7937,374.7937,375.2906,2,17,65,22,1,berko,none,berko,2,2.PNG,stems_all/2.PNG,,,zara_audio_files/berko.wav,,,,,,,,,,
,,,60594,001,2025-01-20_16h43.32.025,generalizability_mini,2023.2.2,Win32,163.9344262,,,,,,,,,,,,,,,,,,,,,,,,,,,,,,,,,,,,,,,,,,,,,,,,,,,,,,,,,,,,,,,,,,,,,,,,,,375.2908,379.79,,,379.7901,380.291,380.2911,380.7881,2,18,66,17,1,kora,sil,korasil,3,3_2.PNG,stems_all/3_2.PNG,,,zara_audio_files/korasil.wav,,,,,,,,,,
,,,60594,001,2025-01-20_16h43.32.025,generalizability_mini,2023.2.2,Win32,163.9344262,,,,,,,,,,,,,,,,,,,,,,,,,,,,,,,,,,,,,,,,,,,,,,,,,,,,,,,,,,,,,,,,,,,,,,,,,,380.7883,389.1534,,,389.1534,389.1763,389.1763,389.1763,2,19,67,0,1,bal,nem,balnem,1,1_dim_sg.PNG,stems_all/1_dim_sg.PNG,,,zara_audio_files/balnem.wav,,,,,,,,,,
,,,60594,001,2025-01-20_16h43.32.025,generalizability_mini,2023.2.2,Win32,163.9344262,,,,,,,,,,,,,,,,,,,,,,,,,,,,,,,,,,,,,,,,,,,,,,,,,,,,,,,,,,,,,,,,,,,,,,,,,,389.1765,393.6738,,"[""N/A""]",393.6738,394.1732,394.1732,394.6675,2,20,68,6,1,berko,nem,berkonem,2,2_dim_sg.PNG,stems_all/2_dim_sg.PNG,,,zara_audio_files/berkonem.wav,[0.8486000000005447],[null],,,,,,,,
,,,60594,001,2025-01-20_16h43.32.025,generalizability_mini,2023.2.2,Win32,163.9344262,,,,,,,,,,,,,,,,,,,,,,,,,,,,,,,,,,,,,,,,,,,,,,,,,,,,,,,,,,,,,,,,,,,,,,,,,,394.6676,397.8923,baldan,"[""N/A"",""b"",""a"",""l"",""d"",""a"",""n"",""return""]",397.8923,398.389,398.3891,398.8872,2,21,69,12,1,bal,dan,baldan,1,1_2.PNG,stems_all/1_2.PNG,,,zara_audio_files/baldan.wav,"[1.0063999999994167,2.3500000000000227,2.46120000000019,2.622000000000014,2.915700000000186,3.0065999999996507,3.117999999999995,3.2140999999996325]","[null,null,null,null,null,null,null,null]",,,,,,,,
,,,60594,001,2025-01-20_16h43.32.025,generalizability_mini,2023.2.2,Win32,163.9344262,,,,,,,,,,,,,,,,,,,,,,,,,,,,,,,,,,,,,,,,,,,,,,,,,,,,,,,,,,,,,,,,,,,,,,,,,,398.8874,403.3834,baldan,"[""b"",""a"",""l"",""d"",""a"",""n"",""return""]",403.3835,403.8817,403.8818,404.3785,2,22,70,15,1,bal,sil,balsil,1,1_2.PNG,stems_all/1_2.PNG,,,zara_audio_files/balsil.wav,"[1.3509000000003653,1.4606000000005679,1.5701000000005365,1.6684999999999945,1.8385000000000105,1.947499999999991,2.0429000000003725]","[null,null,null,null,null,null,null]",,,,,,,,
,,,60594,001,2025-01-20_16h43.32.025,generalizability_mini,2023.2.2,Win32,163.9344262,,,,,,,,,,,,,,,,,,,,,,,,,,,,,,,,,,,,,,,,,,,,,,,,,,,,,,,,,,,,,,,,,,,,,,,,,,404.3787,407.5193,koranem,"[""k"",""o"",""r"",""a"",""n"",""e"",""m"",""return""]",407.5193,408.0149,408.0149,408.5107,2,23,71,11,1,kora,nem,koranem,3,3_dim_sg.PNG,stems_all/3_dim_sg.PNG,,,zara_audio_files/koranem.wav,"[2.260700000000213,2.3821000000005483,2.4972000000001913,2.5880000000000223,2.7475000000000023,2.916900000000396,3.0004000000003543,3.1337000000002035]","[null,null,null,null,null,null,null,null]",,,,,,,,
,,,60594,001,2025-01-20_16h43.32.025,generalizability_mini,2023.2.2,Win32,163.9344262,,,,,,,,,,,,,,,,,,,,,,,,,,,,,,,,,,,,,,,,,,,,,,,,,,,,,,,,,,,,,,,,,,,,,,,,,,408.5109,413.0094,koranem,"[""k"",""o"",""r"",""a"",""n"",""e"",""m"",""return""]",413.0095,413.5061,413.5061,414.0031,3,0,72,2,1,bal,nem,balnem,1,1_dim_sg.PNG,stems_all/1_dim_sg.PNG,,,zara_audio_files/balnem.wav,"[1.8965000000000032,1.9993999999994685,2.0478999999994585,2.775899999999467,3.962599999999611,4.005199999999263,4.168599999999628,4.338299999999833]","[null,null,null,null,null,null,null,null]",,,,,,,,
,,,60594,001,2025-01-20_16h43.32.025,generalizability_mini,2023.2.2,Win32,163.9344262,,,,,,,,,,,,,,,,,,,,,,,,,,,,,,,,,,,,,,,,,,,,,,,,,,,,,,,,,,,,,,,,,,,,,,,,,,414.0032,415.8993,koranem,"[""k"",""o"",""r"",""a"",""n"",""e"",""m"",""return""]",415.8994,416.3976,416.3976,416.8946,3,1,73,8,1,kora,nem,koranem,3,3_dim_sg.PNG,stems_all/3_dim_sg.PNG,,,zara_audio_files/koranem.wav,"[1.194200000000194,1.3335999999996488,1.400399999999422,1.5197000000001708,1.656899999999439,1.739799999999832,1.8250999999996225,1.8875999999996225]","[null,null,null,null,null,null,null,null]",,,,,,,,
,,,60594,001,2025-01-20_16h43.32.025,generalizability_mini,2023.2.2,Win32,163.9344262,,,,,,,,,,,,,,,,,,,,,,,,,,,,,,,,,,,,,,,,,,,,,,,,,,,,,,,,,,,,,,,,,,,,,,,,,,416.8949,419.17,berkonem,"[""b"",""e"",""r"",""k"",""o"",""n"",""e"",""m"",""return""]",419.1701,419.6703,419.6703,420.1735,3,2,74,5,1,berko,nem,berkonem,2,2_dim_sg.PNG,stems_all/2_dim_sg.PNG,,,zara_audio_files/berkonem.wav,"[1.1942999999998278,1.2763999999994553,1.4731999999992809,1.677500000000009,1.7773999999994317,1.9820999999996047,2.091299999999819,2.1563999999994508,2.268699999999228]","[null,null,null,null,null,null,null,null,null]",,,,,,,,
,,,60594,001,2025-01-20_16h43.32.025,generalizability_mini,2023.2.2,Win32,163.9344262,,,,,,,,,,,,,,,,,,,,,,,,,,,,,,,,,,,,,,,,,,,,,,,,,,,,,,,,,,,,,,,,,,,,,,,,,,420.1737,422.4593,balnem,"[""b"",""a"",""l"",""n"",""e"",""m"",""return""]",422.4593,422.9614,422.9614,423.4657,3,3,75,3,1,bal,nem,balnem,1,1_dim_sg.PNG,stems_all/1_dim_sg.PNG,,,zara_audio_files/balnem.wav,"[1.0670999999996411,1.1657999999998196,1.2730999999996016,2.0243999999994458,2.125499999999988,2.194299999999828,2.2789999999999964]","[null,null,null,null,null,null,null]",,,,,,,,
,,,60594,001,2025-01-20_16h43.32.025,generalizability_mini,2023.2.2,Win32,163.9344262,,,,,,,,,,,,,,,,,,,,,,,,,,,,,,,,,,,,,,,,,,,,,,,,,,,,,,,,,,,,,,,,,,,,,,,,,,423.466,427.9668,koranem,"[""k"",""o"",""r"",""a"",""n"",""e"",""m"",""return""]",427.9668,428.4633,428.4633,428.9604,3,4,76,20,1,kora,shoon,korashoon,3,3_dim_sg.PNG,stems_all/3_dim_sg.PNG,,,zara_audio_files/korashoon.wav,"[1.080399999999429,1.1639999999999873,1.2483999999994353,1.3523999999994203,1.4893999999994207,1.579999999999984,1.6801999999992745,1.7762999999998215]","[null,null,null,null,null,null,null,null]",,,,,,,,
,,,60594,001,2025-01-20_16h43.32.025,generalizability_mini,2023.2.2,Win32,163.9344262,,,,,,,,,,,,,,,,,,,,,,,,,,,,,,,,,,,,,,,,,,,,,,,,,,,,,,,,,,,,,,,,,,,,,,,,,,428.9605,433.4594,,,433.4594,433.9606,433.9606,434.4576,3,5,77,18,1,bal,shoon,balshoon,1,1_dim_sg.PNG,stems_all/1_dim_sg.PNG,,,zara_audio_files/balshoon.wav,,,,,,,,,,
,,,60594,001,2025-01-20_16h43.32.025,generalizability_mini,2023.2.2,Win32,163.9344262,,,,,,,,,,,,,,,,,,,,,,,,,,,,,,,,,,,,,,,,,,,,,,,,,,,,,,,,,,,,,,,,,,,,,,,,,,434.4579,438.9569,balsil,"[""b"",""a"",""l"",""s"",""i"",""l"",""return""]",438.9569,439.4531,439.4531,439.9501,3,6,78,12,1,bal,dan,baldan,1,1_2.PNG,stems_all/1_2.PNG,,,zara_audio_files/baldan.wav,"[1.230699999999274,1.3325000000000387,1.5032999999998538,1.7745999999996798,1.847500000000025,1.9198999999994726,2.0860999999996466]","[null,null,null,null,null,null,null]",,,,,,,,
,,,60594,001,2025-01-20_16h43.32.025,generalizability_mini,2023.2.2,Win32,163.9344262,,,,,,,,,,,,,,,,,,,,,,,,,,,,,,,,,,,,,,,,,,,,,,,,,,,,,,,,,,,,,,,,,,,,,,,,,,439.9502,443.2608,berkosil,"[""b"",""e"",""r"",""k"",""o"",""s"",""i"",""l"",""return""]",443.2609,443.7611,443.7612,444.2581,3,7,79,16,1,berko,sil,berkosil,2,2_2.PNG,stems_all/2_2.PNG,,,zara_audio_files/berkosil.wav,"[2.297300000000746,2.444700000000182,2.533600000000547,2.572999999999979,2.7409999999999854,2.9247000000002004,3.012700000000166,3.09280000000075,3.3037000000001626]","[null,null,null,null,null,null,null,null,null]",,,,,,,,
,,,60594,001,2025-01-20_16h43.32.025,generalizability_mini,2023.2.2,Win32,163.9344262,,,,,,,,,,,,,,,,,,,,,,,,,,,,,,,,,,,,,,,,,,,,,,,,,,,,,,,,,,,,,,,,,,,,,,,,,,444.2583,448.1155,koradan,"[""k"",""o"",""r"",""a"",""d"",""a"",""n"",""return""]",448.1156,448.6176,448.6176,449.119,3,8,80,14,1,kora,dan,koradan,3,3_2.PNG,stems_all/3_2.PNG,,,zara_audio_files/koradan.wav,"[3.0669000000003734,3.1261000000005765,3.266999999999996,3.392700000000218,3.5262000000001876,3.6374000000004116,3.750299999999811,3.84710000000058]","[null,null,null,null,null,null,null,null]",,,,,,,,
,,,60594,001,2025-01-20_16h43.32.025,generalizability_mini,2023.2.2,Win32,163.9344262,,,,,,,,,,,,,,,,,,,,,,,,,,,,,,,,,,,,,,,,,,,,,,,,,,,,,,,,,,,,,,,,,,,,,,,,,,449.1192,453.6166,,,453.6167,454.1134,454.1134,454.6102,3,9,81,21,1,bal,none,bal,1,1.PNG,stems_all/1.PNG,,,zara_audio_files/bal.wav,,,,,,,,,,
,,,60594,001,2025-01-20_16h43.32.025,generalizability_mini,2023.2.2,Win32,163.9344262,,,,,,,,,,,,,,,,,,,,,,,,,,,,,,,,,,,,,,,,,,,,,,,,,,,,,,,,,,,,,,,,,,,,,,,,,,454.6104,477.754,,,477.7541,477.7734,477.7734,477.7734,3,10,82,19,1,berko,shoon,berkoshoon,2,2_dim_sg.PNG,stems_all/2_dim_sg.PNG,,,zara_audio_files/berkoshoon.wav,,,,,,,,,,
,,,60594,001,2025-01-20_16h43.32.025,generalizability_mini,2023.2.2,Win32,163.9344262,,,,,,,,,,,,,,,,,,,,,,,,,,,,,,,,,,,,,,,,,,,,,,,,,,,,,,,,,,,,,,,,,,,,,,,,,,477.7737,,,,,,,,3,11,83,10,1,kora,nem,koranem,3,3_dim_sg.PNG,stems_all/3_dim_sg.PNG,,,zara_audio_files/koranem.wav,,,0,0,0,0,1,0,Condition5.csv,119