training_block.thisN,key_resp_21.rt,prod_image2_location,key_resp_23.rt,key_resp_19.keys,alt_image2_location,key_resp_4.keys,textbox_5.text,pretraining_plus_test.thisN,session,pretraining_loop.ran,stem,participant,file,key_resp_22.keys,key_resp_9.keys,demo_info.thisTrialN,key_resp_3.rt,key_resp_31.rt,textbox_7.text,alt_image2_size,forced_choice_block.thisN,prod_resp.text,__participant,production_block.thisN,production_block.ran,comp_label2_location,consent_resp_5.keys,key_resp_22.rt,key_resp_31.keys,test_loop.thisRepN,comp_image_location,suffix,prod_label,consent_resp_3.keys,consent_resp_2.rt,consent_resp_6.keys,key_resp_9.rt,image1,production_block.thisTrialN,key_resp_4.rt,pretraining_loop.thisN,key_resp_16.keys,key_resp_10.rt,prod_image2,consent_resp_6.rt,psychopyVersion,training_block.thisTrialN,pretraining_loop.thisIndex,production_block.thisIndex,pretraining_plus_test.ran,test_loop.thisIndex,image_size,key_resp_18.keys,consent_resp_4.rt,key_resp_26.rt,pretraining_loop.thisRepN,label,key_resp_20.rt,filepath,pretraining_plus_test.thisIndex,key_resp_3.keys,key_resp_20.keys,test_loop.thisN,prod_image2_size,key_resp_19.rt,training_block.thisRepN,frameRate,prod_condition,label1,pretraining,image_location,demo_info.ran,key_resp_23.keys,production_block.thisRepN,alt_image2,key_resp_15.keys,key_resp_16.rt,demo_info.thisIndex,key_resp_27.keys,alt_image1_location,comp_label1_location,suffix1,key_resp_21.keys,textbox_10.text,__session,key_resp_17.rt,demo_info.thisRepN,key_resp_13.rt,experiment_start_resp.rt,key_resp_11.rt,pretraining_loop.thisTrialN,alt_image1_size,training_block.thisIndex,key_resp_26.keys,forced_choice_block.thisTrialN,key_resp_28.rt,key_resp_14.keys,key_resp_30.rt,key_resp_29.keys,__datetime,consent_resp_5.rt,comp_condition_suffix,OS,comp_condition_stem,__experimentName,key_resp_13.keys,consent_resp_2.keys,key_resp_15.rt,key_resp_14.rt,key_resp_30.keys,experiment_start_resp.keys,pretraining_plus_test.thisRepN,stem_filename,label2,key_resp_27.rt,training_block.ran,comp_image,date,textbox_6.text,textbox_9.text,key_resp_10.keys,key_resp_29.rt,condition,key_resp_28.keys,test_loop.ran,alt_image1,consent_resp_3.rt,demo_info.thisN,consent_resp.rt,forced_choice_block.ran,forced_choice_block.thisRepN,comp_image_size,consent_resp_4.keys,key_resp_5.keys,pretraining_plus_test.thisTrialN,expName,suffix2,key_resp_5.rt,test_loop.thisTrialN,key_resp_18.rt,consent_resp.keys,forced_choice_block.thisIndex,key_resp_11.keys,key_resp_17.keys,textbox.text,prod_image1
﻿,,,,,,,,,001,,,332893,,,,,,,,,,,332893,,,,,,,,,,,,,,,,,,,,,,,2022.2.5,,,,,,,,,,,,,,,,,,,,,58.8235294117647,,,0,,,,,,,,,,,,,,,001,,,,,,,,,,,,,,,2024-03-04_11h11.30.277,,,MacIntel,,generalizability_mini,,,,,,,,,,,,,2024-03-04_11h11.45.238,,,,,6,,,,,,,,,,,,,generalizability_mini,,,,,,,,,,
﻿,,,,,,,,,001,1,nako,332893,,,,,,,,,,,332893,,,,,,,,,,,,,,,,,,0,,,,,2022.2.5,,3,,,,"['0.35', '0.35']",,,,0,nako,"[2.5819999999999936,2.740999999999996,2.8549999999999933,2.960999999999995,4.949999999999996]",stems_all/4.PNG,,,"[""n"",""a"",""k"",""o"",""return""]",,,,,58.8235294117647,,,,,,,,,,,,,,,,,,001,,,,,,0,,,,,,,,,2024-03-04_11h11.30.277,,,MacIntel,,generalizability_mini,,,,,,,,,,,,,2024-03-04_11h11.45.238,,nako,,,,,,,,,,,,,,,,generalizability_mini,,,,,,,,,,
﻿,,,,,,,,,001,1,bal,332893,,,,,,,,,,,332893,,,,,,,,,,,,,,,,,,1,,,,,2022.2.5,,0,,,,"['0.35', '0.35']",,,,0,bal,"[2.3550000000000004,2.511000000000003,2.594000000000001,7.719000000000005]",stems_all/1.PNG,,,"[""b"",""a"",""l"",""return""]",,,,,58.8235294117647,,,,,,,,,,,,,,,,,,001,,,,,,1,,,,,,,,,2024-03-04_11h11.30.277,,,MacIntel,,generalizability_mini,,,,,,,,,,,,,2024-03-04_11h11.45.238,,bal,,,,,,,,,,,,,,,,generalizability_mini,,,,,,,,,,
﻿,,,,,,,,,001,1,berko,332893,,,,,,,,,,,332893,,,,,,,,,,,,,,,,,,2,,,,,2022.2.5,,1,,,,"['0.35', '0.35']",,,,0,berko,"[2.2240000000000073,2.8779999999999966,3.203999999999997,3.311999999999994,3.521999999999995,3.5909999999999975,3.716999999999995,4.127999999999997]",stems_all/2.PNG,,,"[""w"",""backspace"",""b"",""e"",""r"",""k"",""o"",""return""]",,,,,58.8235294117647,,,,,,,,,,,,,,,,,,001,,,,,,2,,,,,,,,,2024-03-04_11h11.30.277,,,MacIntel,,generalizability_mini,,,,,,,,,,,,,2024-03-04_11h11.45.238,,berko,,,,,,,,,,,,,,,,generalizability_mini,,,,,,,,,,
﻿,,,,,,,,,001,1,kora,332893,,,,,,,,,,,332893,,,,,,,,,,,,,,,,,,3,,,,,2022.2.5,,2,,,,"['0.35', '0.35']",,,,0,kora,"[1.2779999999999987,1.6409999999999982,1.8960000000000008,2.0080000000000027,2.152000000000001,2.5219999999999985,2.711999999999996,2.902000000000001,3.246000000000002,3.3810000000000002,3.442999999999998,3.695999999999998,3.783999999999999]",stems_all/3.PNG,,,"[""k"",""backspace"",""n"",""a"",""k"",""backspace"",""backspace"",""backspace"",""k"",""o"",""r"",""a"",""return""]",,,,,58.8235294117647,,,,,,,,,,,,,,,,,,001,,,,,,3,,,,,,,,,2024-03-04_11h11.30.277,,,MacIntel,,generalizability_mini,,,,,,,,,,,,,2024-03-04_11h11.45.238,,kora,,,,,,,,,,,,,,,,generalizability_mini,,,,,,,,,,
﻿,2.9649999999999963,,,,,,,,001,,kora,332893,,return,,,,,,,,,332893,,,,,2.6069999999999993,,0,,,,,,,,,,,,,,,,2022.2.5,,,,,2,"['0.35', '0.35']",,,,,kora,,stems_all/3.PNG,,,,0,,,,58.8235294117647,,,,,,,,,,,,,,,,return,"kora
",001,,,,,,,,,,,,,,,2024-03-04_11h11.30.277,,,MacIntel,,generalizability_mini,,,,,,,,,,,,,2024-03-04_11h11.45.238,,,,,,,1,,,,,,,,,,,generalizability_mini,,,0,,,,,,,
﻿,2.2339999999999876,,,,,,,,001,,nako,332893,,,,,,,,,,,332893,,,,,,,0,,,,,,,,,,,,,,,,2022.2.5,,,,,3,"['0.35', '0.35']",,,,,nako,,stems_all/4.PNG,,,,1,,,,58.8235294117647,,,,,,,,,,,,,,,,return,"nako
",001,,,,,,,,,,,,,,,2024-03-04_11h11.30.277,,,MacIntel,,generalizability_mini,,,,,,,,,,,,,2024-03-04_11h11.45.238,,,,,,,1,,,,,,,,,,,generalizability_mini,,,1,,,,,,,
﻿,2.064,,,,,,,,001,,berko,332893,,,,,,,,,,,332893,,,,,,,0,,,,,,,,,,,,,,,,2022.2.5,,,,,1,"['0.35', '0.35']",,,,,berko,,stems_all/2.PNG,,,,2,,,,58.8235294117647,,,,,,,,,,,,,,,,return,"berko
",001,,,,,,,,,,,,,,,2024-03-04_11h11.30.277,,,MacIntel,,generalizability_mini,,,,,,,,,,,,,2024-03-04_11h11.45.238,,,,,,,1,,,,,,,,,,,generalizability_mini,,,2,,,,,,,
﻿,3.4239999999999995,,,,,,,,001,,bal,332893,,,,,,,,,,,332893,,,,,,,0,,,,,,,,,,,,,,,,2022.2.5,,,,,0,"['0.35', '0.35']",,,,,bal,,stems_all/1.PNG,,,,3,,,,58.8235294117647,,,,,,,,,,,,,,,,return,"chool
",001,,,,,,,,,,,,,,,2024-03-04_11h11.30.277,,,MacIntel,,generalizability_mini,,,,,,,,,,,,,2024-03-04_11h11.45.238,,,,,,,1,,,,,,,,,,,generalizability_mini,,,3,,,,,,,
﻿,,,2.547000000000004,,,,,0,001,,,332893,,,,,,,,,,,332893,,,,,,,,,,,,,,,,,,,,,,,2022.2.5,,,,1,,,,,,,,,,0,,,,,,,58.8235294117647,,,,,,return,,,,,,,,,,,,001,,,,,,,,,,,,,,,2024-03-04_11h11.30.277,,,MacIntel,,generalizability_mini,,,,,,,0,,,,,,2024-03-04_11h11.45.238,,,,,,,,,,,,,,,,,0,generalizability_mini,,,,,,,,,,
﻿0,,,,,,,,,001,,berko,332893,2_dim_sg.PNG,,,,,,berkonem,,,,332893,,,,,,,,,nem,,,,,,,,,,,,,,2022.2.5,0,,,,,"['0.20', '0.20']","[""b"",""e"",""r"",""k"",""o"",""n"",""e"",""m"",""return""]",,,,berkonem,,stems_all/2_dim_sg.PNG,,,,,,,0,58.8235294117647,,,,"['0.2', '0.22']",,,,,,,,,,,,,,001,,,,,,,,1,,,,,,,2024-03-04_11h11.30.277,,,MacIntel,,generalizability_mini,,,,,,,,2,,,1,,2024-03-04_11h11.45.238,,,,,,,,,,,,,,,,,,generalizability_mini,,,,"[10.734000000000002,10.898999999999994,11.128999999999998,11.186,11.338000000000001,11.573,11.747999999999998,11.857999999999997,12.365000000000002]",,,,,,
﻿1,,,,,,,,,001,,berko,332893,2_dim_sg.PNG,,,,,,berkonem,,,,332893,,,,,,,,,nem,,,,,,,,,,,,,,2022.2.5,1,,,,,"['0.20', '0.20']","[""b"",""e"",""r"",""k"",""o"",""n"",""e"",""m"",""return""]",,,,berkonem,,stems_all/2_dim_sg.PNG,,,,,,,0,58.8235294117647,,,,"['0.2', '0.22']",,,,,,,,,,,,,,001,,,,,,,,2,,,,,,,2024-03-04_11h11.30.277,,,MacIntel,,generalizability_mini,,,,,,,,2,,,1,,2024-03-04_11h11.45.238,,,,,,,,,,,,,,,,,,generalizability_mini,,,,"[1.1890000000000072,1.3200000000000074,1.5480000000000018,1.6370000000000005,1.7700000000000102,1.9429999999999978,2.0530000000000115,2.187000000000012,2.5930000000000035]",,,,,,
﻿2,,,,,,,,,001,,kora,332893,3_dim_sg.PNG,,,,,,korashoon,,,,332893,,,,,,,,,shoon,,,,,,,,,,,,,,2022.2.5,2,,,,,"['0.20', '0.20']","[""n"",""a"",""k"",""backspace"",""backspace"",""backspace"",""k"",""o"",""r"",""a"",""s"",""h"",""o"",""o"",""n"",""return""]",,,,korashoon,,stems_all/3_dim_sg.PNG,,,,,,,0,58.8235294117647,,,,"['0.2', '0.22']",,,,,,,,,,,,,,001,,,,,,,,4,,,,,,,2024-03-04_11h11.30.277,,,MacIntel,,generalizability_mini,,,,,,,,3,,,1,,2024-03-04_11h11.45.238,,,,,,,,,,,,,,,,,,generalizability_mini,,,,"[1.656000000000006,1.8160000000000025,1.9450000000000074,2.3100000000000023,2.5,2.6940000000000026,3.0490000000000066,3.1970000000000027,3.2310000000000088,3.5050000000000097,3.6770000000000067,3.7450000000000045,3.9110000000000014,4.097000000000008,4.194000000000003,4.5530000000000115]",,,,,,
﻿3,,,,,,,,,001,,kora,332893,3_2.PNG,,,,,,korasil,,,,332893,,,,,,,,,sil,,,,,,,,,,,,,,2022.2.5,3,,,,,"['0.35', '0.35']","[""k"",""o"",""r"",""a"",""s"",""i"",""l"",""return""]",,,,korasil,,stems_all/3_2.PNG,,,,,,,0,58.8235294117647,,,,"['-0.2', '-0.18']",,,,,,,,,,,,,,001,,,,,,,,3,,,,,,,2024-03-04_11h11.30.277,,,MacIntel,,generalizability_mini,,,,,,,,3,,,1,,2024-03-04_11h11.45.238,,,,,,,,,,,,,,,,,,generalizability_mini,,,,"[2.2560000000000002,2.394999999999996,2.4680000000000035,2.7249999999999943,2.902000000000001,2.9839999999999947,3.1509999999999962,3.469999999999999]",,,,,,
﻿4,,,,,,,,,001,,bal,332893,1_2.PNG,,,,,,baldan,,,,332893,,,,,,,,,dan,,,,,,,,,,,,,,2022.2.5,4,,,,,"['0.35', '0.35']","[""b"",""a"",""l"",""d"",""a"",""n"",""return""]",,,,baldan,,stems_all/1_2.PNG,,,,,,,0,58.8235294117647,,,,"['-0.2', '-0.18']",,,,,,,,,,,,,,001,,,,,,,,0,,,,,,,2024-03-04_11h11.30.277,,,MacIntel,,generalizability_mini,,,,,,,,1,,,1,,2024-03-04_11h11.45.238,,,,,,,,,,,,,,,,,,generalizability_mini,,,,"[2.247,2.361000000000004,2.480000000000004,2.625,2.8400000000000034,2.939000000000007,3.26700000000001]",,,,,,
﻿,,,,,,,,,001,,,332893,,,,,,,,,,,332893,,,,,,,,,,,,,,,,,,,,,,,2022.2.5,,,,,,,,,,,,,,,,,,,,,58.8235294117647,,,,,,,,,,,,,,,,,,001,,,,,,,,,,,,return,,,2024-03-04_11h11.30.277,,,MacIntel,,generalizability_mini,,,,3.314000000000007,,,,,,,,,2024-03-04_11h11.45.238,,,,,,,,,,,,,,,,,,generalizability_mini,,,,,,,,,,
﻿,,,,,,,,,001,,,332893,,,,,,,,,,,332893,,,,,,,,,,,,,,,,,,,,,,,2022.2.5,,,,,,,,,,,,,,,,,,,,,58.8235294117647,,,,,,,,,,,,return,,,,,,001,,,,,,,,,,,,,,,2024-03-04_11h11.30.277,,,MacIntel,,generalizability_mini,,,,,,,,,,1.492999999999995,,,2024-03-04_11h11.45.238,,,,,,,,,,,,,,,,,,generalizability_mini,,,,,,,,,,
﻿,,"['0.2', '-0.18']",,,"['-0.2', '-0.18']",,,,001,,,332893,3_dim_pl.PNG,,,,,,,"['0.35', '0.35']",,"korashoon
",332893,0,1,,,,,,,,kora,,,,,,0,,,,,stems_all/3_dim_pl.PNG,,2022.2.5,,,4,,,,,,,,,,,,,,,"['0.20', '0.20']",,,58.8235294117647,familiar,,,,,,0,stems_all/3_2.PNG,return,,,,"['0.2', '0.22']",,,,,001,,,,,,,,,,,,,,,2024-03-04_11h11.30.277,,,MacIntel,,generalizability_mini,,,3.2750000000000057,,,,,,,,,,2024-03-04_11h11.45.238,,,,,,,,stems_all/3_dim_sg.PNG,,,,,,,,,,generalizability_mini,,,,,,,,,,stems_all/3.PNG
﻿,,"['0.2', '-0.18']",,,"['-0.2', '-0.18']",,,,001,,,332893,1_dim_pl.PNG,,,,,,,"['0.35', '0.35']",,"baldan
",332893,1,1,,,,,,,,bal,,,,,,1,,,,,stems_all/1_dim_pl.PNG,,2022.2.5,,,2,,,,,,,,,,,,,,,"['0.20', '0.20']",,,58.8235294117647,familiar,,,,,,0,stems_all/1_2.PNG,return,,,,"['0.2', '0.22']",,,,,001,,,,,,,,,,,,,,,2024-03-04_11h11.30.277,,,MacIntel,,generalizability_mini,,,1.1069999999999993,,,,,,,,,,2024-03-04_11h11.45.238,,,,,,,,stems_all/1_dim_sg.PNG,,,,,,,,,,generalizability_mini,,,,,,,,,,stems_all/1.PNG
﻿,,"['0.2', '-0.18']",,,"['-0.2', '-0.18']",,,,001,,,332893,13_dim_pl.PNG,,,,,,,"['0.35', '0.35']",,"pilshoon
",332893,2,1,,,,,,,,pil,,,,,,2,,,,,stems_all/13_dim_pl.PNG,,2022.2.5,,,5,,,,,,,,,,,,,,,"['0.20', '0.20']",,,58.8235294117647,novel,,,,,,0,stems_all/13_2.PNG,return,,,,"['0.2', '0.22']",,,,,001,,,,,,,,,,,,,,,2024-03-04_11h11.30.277,,,MacIntel,,generalizability_mini,,,2.5320000000000107,,,,,,,,,,2024-03-04_11h11.45.238,,,,,,,,stems_all/13_dim_sg.PNG,,,,,,,,,,generalizability_mini,,,,,,,,,,stems_all/13.PNG
﻿,,"['0.2', '0.22']",,,"['-0.2', '-0.18']",,,,001,,,332893,1_dim_sg.PNG,,,,,,,"['0.35', '0.35']",,"balshoon
",332893,3,1,,,,,,,,bal,,,,,,3,,,,,stems_all/1_dim_sg.PNG,,2022.2.5,,,0,,,,,,,,,,,,,,,"['0.20', '0.20']",,,58.8235294117647,familiar,,,,,,0,stems_all/1_2.PNG,return,,,,"['0.2', '-0.18']",,,,,001,,,,,,,,,,,,,,,2024-03-04_11h11.30.277,,,MacIntel,,generalizability_mini,,,3.6370000000000005,,,,,,,,,,2024-03-04_11h11.45.238,,,,,,,,stems_all/1_dim_pl.PNG,,,,,,,,,,generalizability_mini,,,,,,,,,,stems_all/1.PNG
﻿,,"['0.2', '-0.18']",,,"['-0.2', '-0.18']",,,,001,,,332893,2_dim_pl.PNG,,,,,,,"['0.35', '0.35']",,"berkoshoon
",332893,4,1,,,,,,,,berko,,,,,,4,,,,,stems_all/2_dim_pl.PNG,,2022.2.5,,,3,,,,,,,,,,,,,,,"['0.20', '0.20']",,,58.8235294117647,familiar,,,,,,0,stems_all/2_2.PNG,return,,,,"['0.2', '0.22']",,,,,001,,,,,,,,,,,,,,,2024-03-04_11h11.30.277,,,MacIntel,,generalizability_mini,,,4.0319999999999965,,,,,,,,,,2024-03-04_11h11.45.238,,,,,,,,stems_all/2_dim_sg.PNG,,,,,,,,,,generalizability_mini,,,,,,,,,,stems_all/2.PNG
﻿,,"['0.2', '0.22']",,,"['-0.2', '-0.18']",,,,001,,,332893,15_dim_sg.PNG,,,,,,,"['0.35', '0.35']",,"shindershoon
",332893,5,1,,,,,,,,shinder,,,,,,5,,,,,stems_all/15_dim_sg.PNG,,2022.2.5,,,1,,,,,,,,,,,,,,,"['0.20', '0.20']",,,58.8235294117647,novel,,,,,,0,stems_all/15_2.PNG,return,,,,"['0.2', '-0.18']",,,,,001,,,,,,,,,,,,,,,2024-03-04_11h11.30.277,,,MacIntel,,generalizability_mini,,,2.040999999999997,,,,,,,,,,2024-03-04_11h11.45.238,,,,,,,,stems_all/15_dim_pl.PNG,,,,,,,,,,generalizability_mini,,,,,,,,,,stems_all/15.PNG
﻿,,,,,,,,,001,,,332893,,,,,,,,,,,332893,,,,,,,,,,,,,,,,,,,,,,,2022.2.5,,,,,,,,,,,,,,,,,,,,,58.8235294117647,,,,,,,,,,,,,,,,,,001,5.549000000000007,,,,,,,,,,,,,,2024-03-04_11h11.30.277,,,MacIntel,,generalizability_mini,,,,,,,,,,,,,2024-03-04_11h11.45.238,,,,,,,,,,,,,,,,,,generalizability_mini,,,,,,,,return,,
﻿,,,,return,,,,,001,,,332893,,,,,,,,,,,332893,,,,,,,,,,,,,,,,,,,,,,,2022.2.5,,,,,,,,,,,,,,,,,,,0.7869999999999777,,58.8235294117647,,,,,,,,,,,,,,,,,,001,,,,,,,,,,,,,,,2024-03-04_11h11.30.277,,,MacIntel,,generalizability_mini,,,,,,,,,,,,,2024-03-04_11h11.45.238,,,,,,,,,,,,,,,,,,generalizability_mini,,,,,,,,,,
﻿,,,,,"['0.2', '0.2']",,,,001,,lucko,332893,,,,,,,,"['0.20', '0.20']",0,,332893,,,right,,,,,"['0.2', '-0.2']",,,,,,,stems_all/17.PNG,,,,left,,,,2022.2.5,,,,,,,,,,,,,,,,,,,,,58.8235294117647,,luckodan,,,,,,stems_all/17_dim_sg.PNG,,4.52000000000001,,,"['-0.2', '-0.2']",left,dan,,,001,,,,,,,"['0.35', '0.35']",,,0,,,,,2024-03-04_11h11.30.277,,dim_pl,MacIntel,novel,generalizability_mini,,,,,,,,,luckonem,,,stems_all/17_dim_pl.PNG,2024-03-04_11h11.45.238,,,,,,,,stems_all/17_2.PNG,,,,1,0,"['0.20', '0.20']",,,,generalizability_mini,nem,,,,,4,,,,
﻿,,,,,"['0.2', '0.2']",,,,001,,berko,332893,,,,,,,,"['0.20', '0.20']",1,,332893,,,right,,,,,"['0.2', '-0.2']",,,,,,,stems_all/2.PNG,,,,right,,,,2022.2.5,,,,,,,,,,,,,,,,,,,,,58.8235294117647,,berkonem,,,,,,stems_all/2_dim_sg.PNG,,0.646000000000015,,,"['-0.2', '-0.2']",left,nem,,,001,,,,,,,"['0.35', '0.35']",,,1,,,,,2024-03-04_11h11.30.277,,dim_pl,MacIntel,familiar,generalizability_mini,,,,,,,,,berkodan,,,stems_all/2_dim_pl.PNG,2024-03-04_11h11.45.238,,,,,,,,stems_all/2_2.PNG,,,,1,0,"['0.20', '0.20']",,,,generalizability_mini,dan,,,,,1,,,,
﻿,,,,,"['0.2', '0.2']",,,,001,,kora,332893,,,,,,,,"['0.20', '0.20']",2,,332893,,,left,,,,,"['0.2', '-0.2']",,,,,,,stems_all/3.PNG,,,,right,,,,2022.2.5,,,,,,,,,,,,,,,,,,,,,58.8235294117647,,koradan,,,,,,stems_all/3_dim_sg.PNG,,0.8019999999999925,,,"['-0.2', '-0.2']",right,dan,,,001,,,,,,,"['0.35', '0.35']",,,2,,,,,2024-03-04_11h11.30.277,,dim_pl,MacIntel,familiar,generalizability_mini,,,,,,,,,koranem,,,stems_all/3_dim_pl.PNG,2024-03-04_11h11.45.238,,,,,,,,stems_all/3_2.PNG,,,,1,0,"['0.20', '0.20']",,,,generalizability_mini,nem,,,,,2,,,,
﻿,,,,,"['0.2', '0.2']",,,,001,,bassi,332893,,,,,,,,"['0.20', '0.20']",3,,332893,,,left,,,,,"['0.2', '-0.2']",,,,,,,stems_all/16.PNG,,,,right,,,,2022.2.5,,,,,,,,,,,,,,,,,,,,,58.8235294117647,,bassinem,,,,,,stems_all/16_dim_sg.PNG,,0.9869999999999948,,,"['-0.2', '-0.2']",right,nem,,,001,,,,,,,"['0.35', '0.35']",,,3,,,,,2024-03-04_11h11.30.277,,dim_pl,MacIntel,novel,generalizability_mini,,,,,,,,,bassidan,,,stems_all/16_dim_pl.PNG,2024-03-04_11h11.45.238,,,,,,,,stems_all/16_2.PNG,,,,1,0,"['0.20', '0.20']",,,,generalizability_mini,dan,,,,,3,,,,
﻿,,,,,"['0.2', '0.2']",,,,001,,bal,332893,,,,,,,,"['0.20', '0.20']",4,,332893,,,right,,,,,"['0.2', '-0.2']",,,,,,,stems_all/1.PNG,,,,left,,,,2022.2.5,,,,,,,,,,,,,,,,,,,,,58.8235294117647,,baldan,,,,,,stems_all/1_dim_sg.PNG,,1.8059999999999832,,,"['-0.2', '-0.2']",left,dan,,,001,,,,,,,"['0.35', '0.35']",,,4,,,,,2024-03-04_11h11.30.277,,dim_pl,MacIntel,familiar,generalizability_mini,,,,,,,,,balnem,,,stems_all/1_dim_pl.PNG,2024-03-04_11h11.45.238,,,,,,,,stems_all/1_2.PNG,,,,1,0,"['0.20', '0.20']",,,,generalizability_mini,nem,,,,,0,,,,
﻿,,,,,,,,,001,,,332893,,,,,,,,,,,332893,,,,,,,,,,,,,,,,,,,,,,,2022.2.5,,,,,,,,,,,,,,,,,,,,,58.8235294117647,,,,,,,,,,,,,,,,,,001,,,,,,,,,,,,,,,2024-03-04_11h11.30.277,,,MacIntel,,generalizability_mini,,,,,,,,,,,,,2024-03-04_11h11.45.238,,,,,,,,,,,,,,,,,,generalizability_mini,,,,,,,,,,
﻿,,,,,,,,,001,,,332893,,,,,,,,,,,332893,,,,,,,,,,,,,,,,,,,,,,,2022.2.5,,,,,,,,,,,,,,,,,,,,,58.8235294117647,,,,,,,,,,,,,,,,,,001,,,1.188999999999993,,,,,,,,,,,,2024-03-04_11h11.30.277,,,MacIntel,,generalizability_mini,space,,,,,,,,,,,,2024-03-04_11h11.45.238,,,,,,,,,,,,,,,,,,generalizability_mini,,,,,,,,,,
﻿,,,,,,,,,001,,,837048,,,,,,,,,,,837048,,,,,,,,,,,,,,,,,,,,,,,2022.2.5,,,,,,,,,,,,,,,,,,,,,52.63157894736842,,,0,,,,,,,,,,,,,,,001,,,,,,,,,,,,,,,2024-03-04_11h16.08.754,,,MacIntel,,generalizability_mini,,,,,,,,,,,,,2024-03-04_11h16.11.380,,,,,4,,,,,,,,,,,,,generalizability_mini,,,,,,,,,,
﻿,,,,,,,,,001,1,berko,837048,,,,,,,,,,,837048,,,,,,,,,,,,,,,,,,0,,,,,2022.2.5,,1,,,,"['0.35', '0.35']",,,,0,berko,"[3.292,3.412,3.641,3.713,3.8999999999999995,5.356000000000001]",stems_all/2.PNG,,,"[""b"",""e"",""r"",""k"",""o"",""return""]",,,,,52.63157894736842,,,,,,,,,,,,,,,,,,001,,,,,,0,,,,,,,,,2024-03-04_11h16.08.754,,,MacIntel,,generalizability_mini,,,,,,,,,,,,,2024-03-04_11h16.11.380,,berko,,,,,,,,,,,,,,,,generalizability_mini,,,,,,,,,,
﻿,,,,,,,,,001,1,nako,837048,,,,,,,,,,,837048,,,,,,,,,,,,,,,,,,1,,,,,2022.2.5,,3,,,,"['0.35', '0.35']",,,,0,nako,"[2.370000000000001,2.5220000000000002,2.6590000000000007,2.779,8.405000000000003]",stems_all/4.PNG,,,"[""n"",""a"",""k"",""o"",""return""]",,,,,52.63157894736842,,,,,,,,,,,,,,,,,,001,,,,,,1,,,,,,,,,2024-03-04_11h16.08.754,,,MacIntel,,generalizability_mini,,,,,,,,,,,,,2024-03-04_11h16.11.380,,nako,,,,,,,,,,,,,,,,generalizability_mini,,,,,,,,,,
﻿,,,,,,,,,001,1,kora,837048,,,,,,,,,,,837048,,,,,,,,,,,,,,,,,,2,,,,,2022.2.5,,2,,,,"['0.35', '0.35']",,,,0,kora,"[0.953000000000003,1.1900000000000048,1.318000000000005,1.6230000000000047,1.7380000000000067]",stems_all/3.PNG,,,"[""k"",""o"",""r"",""a"",""return""]",,,,,52.63157894736842,,,,,,,,,,,,,,,,,,001,,,,,,2,,,,,,,,,2024-03-04_11h16.08.754,,,MacIntel,,generalizability_mini,,,,,,,,,,,,,2024-03-04_11h16.11.380,,kora,,,,,,,,,,,,,,,,generalizability_mini,,,,,,,,,,
﻿,,,,,,,,,001,1,bal,837048,,,,,,,,,,,837048,,,,,,,,,,,,,,,,,,3,,,,,2022.2.5,,0,,,,"['0.35', '0.35']",,,,0,bal,"[1.7040000000000006,2.125,2.4780000000000015,2.573999999999998,2.6700000000000017,2.950000000000003]",stems_all/1.PNG,,,"[""c"",""backspace"",""b"",""a"",""l"",""return""]",,,,,52.63157894736842,,,,,,,,,,,,,,,,,,001,,,,,,3,,,,,,,,,2024-03-04_11h16.08.754,,,MacIntel,,generalizability_mini,,,,,,,,,,,,,2024-03-04_11h16.11.380,,bal,,,,,,,,,,,,,,,,generalizability_mini,,,,,,,,,,
﻿,3.2620000000000005,,,,,,,,001,,kora,837048,,return,,,,,,,,,837048,,,,,1.5409999999999968,,0,,,,,,,,,,,,,,,,2022.2.5,,,,,2,"['0.35', '0.35']",,,,,kora,,stems_all/3.PNG,,,,0,,,,52.63157894736842,,,,,,,,,,,,,,,,return,"neko
",001,,,,,,,,,,,,,,,2024-03-04_11h16.08.754,,,MacIntel,,generalizability_mini,,,,,,,,,,,,,2024-03-04_11h16.11.380,,,,,,,1,,,,,,,,,,,generalizability_mini,,,0,,,,,,,
﻿,2.144999999999996,,,,,,,,001,,berko,837048,,,,,,,,,,,837048,,,,,,,0,,,,,,,,,,,,,,,,2022.2.5,,,,,1,"['0.35', '0.35']",,,,,berko,,stems_all/2.PNG,,,,1,,,,52.63157894736842,,,,,,,,,,,,,,,,return,"berko
",001,,,,,,,,,,,,,,,2024-03-04_11h16.08.754,,,MacIntel,,generalizability_mini,,,,,,,,,,,,,2024-03-04_11h16.11.380,,,,,,,1,,,,,,,,,,,generalizability_mini,,,1,,,,,,,
﻿,2.3629999999999995,,,,,,,,001,,bal,837048,,,,,,,,,,,837048,,,,,,,0,,,,,,,,,,,,,,,,2022.2.5,,,,,0,"['0.35', '0.35']",,,,,bal,,stems_all/1.PNG,,,,2,,,,52.63157894736842,,,,,,,,,,,,,,,,return,"chool
",001,,,,,,,,,,,,,,,2024-03-04_11h16.08.754,,,MacIntel,,generalizability_mini,,,,,,,,,,,,,2024-03-04_11h16.11.380,,,,,,,1,,,,,,,,,,,generalizability_mini,,,2,,,,,,,
﻿,1.617999999999995,,,,,,,,001,,nako,837048,,,,,,,,,,,837048,,,,,,,0,,,,,,,,,,,,,,,,2022.2.5,,,,,3,"['0.35', '0.35']",,,,,nako,,stems_all/4.PNG,,,,3,,,,52.63157894736842,,,,,,,,,,,,,,,,return,"bal
",001,,,,,,,,,,,,,,,2024-03-04_11h16.08.754,,,MacIntel,,generalizability_mini,,,,,,,,,,,,,2024-03-04_11h16.11.380,,,,,,,1,,,,,,,,,,,generalizability_mini,,,3,,,,,,,
﻿,,,0.8740000000000023,,,,,0,001,,,837048,,,,,,,,,,,837048,,,,,,,,,,,,,,,,,,,,,,,2022.2.5,,,,1,,,,,,,,,,0,,,,,,,52.63157894736842,,,,,,return,,,,,,,,,,,,001,,,,,,,,,,,,,,,2024-03-04_11h16.08.754,,,MacIntel,,generalizability_mini,,,,,,,0,,,,,,2024-03-04_11h16.11.380,,,,,,,,,,,,,,,,,0,generalizability_mini,,,,,,,,,,
﻿0,,,,,,,,,001,,berko,837048,2_dim_sg.PNG,,,,,,berkonem,,,,837048,,,,,,,,,nem,,,,,,,,,,,,,,2022.2.5,0,,,,,"['0.20', '0.20']","[""b"",""e"",""r"",""k"",""o"",""n"",""e"",""m"",""return""]",,,,berkonem,,stems_all/2_dim_sg.PNG,,,,,,,0,52.63157894736842,,,,"['0.2', '0.22']",,,,,,,,,,,,,,001,,,,,,,,1,,,,,,,2024-03-04_11h16.08.754,,,MacIntel,,generalizability_mini,,,,,,,,2,,,1,,2024-03-04_11h16.11.380,,,,,,,,,,,,,,,,,,generalizability_mini,,,,"[1.5009999999999977,1.6140000000000043,1.820999999999998,1.9080000000000013,2.054000000000002,2.6540000000000035,2.7550000000000026,2.875,3.192999999999998]",,,,,,
﻿1,,,,,,,,,001,,kora,837048,3_dim_sg.PNG,,,,,,korashoon,,,,837048,,,,,,,,,shoon,,,,,,,,,,,,,,2022.2.5,1,,,,,"['0.20', '0.20']","[""k"",""o"",""r"",""a"",""s"",""h"",""o"",""o"",""n"",""return""]",,,,korashoon,,stems_all/3_dim_sg.PNG,,,,,,,0,52.63157894736842,,,,"['0.2', '0.22']",,,,,,,,,,,,,,001,,,,,,,,4,,,,,,,2024-03-04_11h16.08.754,,,MacIntel,,generalizability_mini,,,,,,,,3,,,1,,2024-03-04_11h16.11.380,,,,,,,,,,,,,,,,,,generalizability_mini,,,,"[2.4309999999999974,2.5589999999999975,2.6030000000000015,2.860999999999997,3.036999999999999,3.1199999999999974,3.274000000000001,3.442999999999998,3.5519999999999996,3.8590000000000018]",,,,,,
﻿2,,,,,,,,,001,,berko,837048,2_dim_sg.PNG,,,,,,berkonem,,,,837048,,,,,,,,,nem,,,,,,,,,,,,,,2022.2.5,2,,,,,"['0.20', '0.20']","[""b"",""e"",""r"",""k"",""o"",""n"",""e"",""m"",""return""]",,,,berkonem,,stems_all/2_dim_sg.PNG,,,,,,,0,52.63157894736842,,,,"['0.2', '0.22']",,,,,,,,,,,,,,001,,,,,,,,2,,,,,,,2024-03-04_11h16.08.754,,,MacIntel,,generalizability_mini,,,,,,,,2,,,1,,2024-03-04_11h16.11.380,,,,,,,,,,,,,,,,,,generalizability_mini,,,,"[2.456000000000003,2.5459999999999994,2.7550000000000026,2.811,2.929000000000002,3.061,3.1679999999999993,3.2590000000000003,3.5559999999999974]",,,,,,
﻿3,,,,,,,,,001,,bal,837048,1_2.PNG,,,,,,baldan,,,,837048,,,,,,,,,dan,,,,,,,,,,,,,,2022.2.5,3,,,,,"['0.35', '0.35']","[""b"",""a"",""l"",""d"",""a"",""n"",""return""]",,,,baldan,,stems_all/1_2.PNG,,,,,,,0,52.63157894736842,,,,"['-0.2', '-0.18']",,,,,,,,,,,,,,001,,,,,,,,0,,,,,,,2024-03-04_11h16.08.754,,,MacIntel,,generalizability_mini,,,,,,,,1,,,1,,2024-03-04_11h16.11.380,,,,,,,,,,,,,,,,,,generalizability_mini,,,,"[2.450000000000003,2.5660000000000025,2.672000000000004,2.828000000000003,3.0530000000000044,3.149000000000001,3.4209999999999994]",,,,,,
﻿4,,,,,,,,,001,,kora,837048,3_2.PNG,,,,,,korasil,,,,837048,,,,,,,,,sil,,,,,,,,,,,,,,2022.2.5,4,,,,,"['0.35', '0.35']","[""k"",""o"",""r"",""a"",""s"",""i"",""l"",""return""]",,,,korasil,,stems_all/3_2.PNG,,,,,,,0,52.63157894736842,,,,"['-0.2', '-0.18']",,,,,,,,,,,,,,001,,,,,,,,3,,,,,,,2024-03-04_11h16.08.754,,,MacIntel,,generalizability_mini,,,,,,,,3,,,1,,2024-03-04_11h16.11.380,,,,,,,,,,,,,,,,,,generalizability_mini,,,,"[1.8569999999999993,1.993000000000002,2.145000000000003,2.402000000000001,2.628,3.4840000000000018,3.6780000000000044,4.012999999999998]",,,,,,
﻿,,,,,,,,,001,,,837048,,,,,,,,,,,837048,,,,,,,,,,,,,,,,,,,,,,,2022.2.5,,,,,,,,,,,,,,,,,,,,,52.63157894736842,,,,,,,,,,,,,,,,,,001,,,,,,,,,,,,return,,,2024-03-04_11h16.08.754,,,MacIntel,,generalizability_mini,,,,6.4069999999999965,,,,,,,,,2024-03-04_11h16.11.380,,,,,,,,,,,,,,,,,,generalizability_mini,,,,,,,,,,
﻿,,,,,,,,,001,,,837048,,,,,,,,,,,837048,,,,,,,,,,,,,,,,,,,,,,,2022.2.5,,,,,,,,,,,,,,,,,,,,,52.63157894736842,,,,,,,,,,,,return,,,,,,001,,,,,,,,,,,,,,,2024-03-04_11h16.08.754,,,MacIntel,,generalizability_mini,,,,,,,,,,3.980000000000004,,,2024-03-04_11h16.11.380,,,,,,,,,,,,,,,,,,generalizability_mini,,,,,,,,,,
﻿,,"['0.2', '-0.18']",,,"['-0.2', '-0.18']",,,,001,,,837048,3_dim_pl.PNG,,,,,,,"['0.35', '0.35']",,"oranem
",837048,0,1,,,,,,,,kora,,,,,,0,,,,,stems_all/3_dim_pl.PNG,,2022.2.5,,,4,,,,,,,,,,,,,,,"['0.20', '0.20']",,,52.63157894736842,familiar,,,,,,0,stems_all/3_2.PNG,return,,,,"['0.2', '0.22']",,,,,001,,,,,,,,,,,,,,,2024-03-04_11h16.08.754,,,MacIntel,,generalizability_mini,,,1.8529999999999944,,,,,,,,,,2024-03-04_11h16.11.380,,,,,,,,stems_all/3_dim_sg.PNG,,,,,,,,,,generalizability_mini,,,,,,,,,,stems_all/3.PNG
﻿,,"['0.2', '-0.18']",,,"['-0.2', '-0.18']",,,,001,,,837048,13_dim_pl.PNG,,,,,,,"['0.35', '0.35']",,"pildan
",837048,1,1,,,,,,,,pil,,,,,,1,,,,,stems_all/13_dim_pl.PNG,,2022.2.5,,,5,,,,,,,,,,,,,,,"['0.20', '0.20']",,,52.63157894736842,novel,,,,,,0,stems_all/13_2.PNG,return,,,,"['0.2', '0.22']",,,,,001,,,,,,,,,,,,,,,2024-03-04_11h16.08.754,,,MacIntel,,generalizability_mini,,,2.477000000000004,,,,,,,,,,2024-03-04_11h16.11.380,,,,,,,,stems_all/13_dim_sg.PNG,,,,,,,,,,generalizability_mini,,,,,,,,,,stems_all/13.PNG
﻿,,"['0.2', '0.22']",,,"['-0.2', '-0.18']",,,,001,,,837048,1_dim_sg.PNG,,,,,,,"['0.35', '0.35']",,"balshoon
",837048,2,1,,,,,,,,bal,,,,,,2,,,,,stems_all/1_dim_sg.PNG,,2022.2.5,,,0,,,,,,,,,,,,,,,"['0.20', '0.20']",,,52.63157894736842,familiar,,,,,,0,stems_all/1_2.PNG,return,,,,"['0.2', '-0.18']",,,,,001,,,,,,,,,,,,,,,2024-03-04_11h16.08.754,,,MacIntel,,generalizability_mini,,,2.7239999999999895,,,,,,,,,,2024-03-04_11h16.11.380,,,,,,,,stems_all/1_dim_pl.PNG,,,,,,,,,,generalizability_mini,,,,,,,,,,stems_all/1.PNG
﻿,,"['0.2', '-0.18']",,,"['-0.2', '-0.18']",,,,001,,,837048,1_dim_pl.PNG,,,,,,,"['0.35', '0.35']",,"balnem
",837048,3,1,,,,,,,,bal,,,,,,3,,,,,stems_all/1_dim_pl.PNG,,2022.2.5,,,2,,,,,,,,,,,,,,,"['0.20', '0.20']",,,52.63157894736842,familiar,,,,,,0,stems_all/1_2.PNG,return,,,,"['0.2', '0.22']",,,,,001,,,,,,,,,,,,,,,2024-03-04_11h16.08.754,,,MacIntel,,generalizability_mini,,,2.3470000000000084,,,,,,,,,,2024-03-04_11h16.11.380,,,,,,,,stems_all/1_dim_sg.PNG,,,,,,,,,,generalizability_mini,,,,,,,,,,stems_all/1.PNG
﻿,,"['0.2', '-0.18']",,,"['-0.2', '-0.18']",,,,001,,,837048,2_dim_pl.PNG,,,,,,,"['0.35', '0.35']",,"berkoshoon
",837048,4,1,,,,,,,,berko,,,,,,4,,,,,stems_all/2_dim_pl.PNG,,2022.2.5,,,3,,,,,,,,,,,,,,,"['0.20', '0.20']",,,52.63157894736842,familiar,,,,,,0,stems_all/2_2.PNG,return,,,,"['0.2', '0.22']",,,,,001,,,,,,,,,,,,,,,2024-03-04_11h16.08.754,,,MacIntel,,generalizability_mini,,,2.9000000000000057,,,,,,,,,,2024-03-04_11h16.11.380,,,,,,,,stems_all/2_dim_sg.PNG,,,,,,,,,,generalizability_mini,,,,,,,,,,stems_all/2.PNG
﻿,,"['0.2', '0.22']",,,"['-0.2', '-0.18']",,,,001,,,837048,15_dim_sg.PNG,,,,,,,"['0.35', '0.35']",,"shindershoon
",837048,5,1,,,,,,,,shinder,,,,,,5,,,,,stems_all/15_dim_sg.PNG,,2022.2.5,,,1,,,,,,,,,,,,,,,"['0.20', '0.20']",,,52.63157894736842,novel,,,,,,0,stems_all/15_2.PNG,return,,,,"['0.2', '-0.18']",,,,,001,,,,,,,,,,,,,,,2024-03-04_11h16.08.754,,,MacIntel,,generalizability_mini,,,2.25,,,,,,,,,,2024-03-04_11h16.11.380,,,,,,,,stems_all/15_dim_pl.PNG,,,,,,,,,,generalizability_mini,,,,,,,,,,stems_all/15.PNG
﻿,,,,,,,,,001,,,837048,,,,,,,,,,,837048,,,,,,,,,,,,,,,,,,,,,,,2022.2.5,,,,,,,,,,,,,,,,,,,,,52.63157894736842,,,,,,,,,,,,,,,,,,001,1.9150000000000063,,,,,,,,,,,,,,2024-03-04_11h16.08.754,,,MacIntel,,generalizability_mini,,,,,,,,,,,,,2024-03-04_11h16.11.380,,,,,,,,,,,,,,,,,,generalizability_mini,,,,,,,,return,,
﻿,,,,return,,,,,001,,,837048,,,,,,,,,,,837048,,,,,,,,,,,,,,,,,,,,,,,2022.2.5,,,,,,,,,,,,,,,,,,,2.084000000000003,,52.63157894736842,,,,,,,,,,,,,,,,,,001,,,,,,,,,,,,,,,2024-03-04_11h16.08.754,,,MacIntel,,generalizability_mini,,,,,,,,,,,,,2024-03-04_11h16.11.380,,,,,,,,,,,,,,,,,,generalizability_mini,,,,,,,,,,
﻿,,,,,"['0.2', '0.2']",,,,001,,kora,837048,,,,,,,,"['0.20', '0.20']",0,,837048,,,right,,,,,"['0.2', '-0.2']",,,,,,,stems_all/3.PNG,,,,right,,,,2022.2.5,,,,,,,,,,,,,,,,,,,,,52.63157894736842,,koradan,,,,,,stems_all/3_dim_sg.PNG,,1.3629999999999995,,,"['-0.2', '-0.2']",left,dan,,,001,,,,,,,"['0.35', '0.35']",,,0,,,,,2024-03-04_11h16.08.754,,dim_pl,MacIntel,familiar,generalizability_mini,,,,,,,,,koranem,,,stems_all/3_dim_pl.PNG,2024-03-04_11h16.11.380,,,,,,,,stems_all/3_2.PNG,,,,1,0,"['0.20', '0.20']",,,,generalizability_mini,nem,,,,,2,,,,
﻿,,,,,"['0.2', '0.2']",,,,001,,lucko,837048,,,,,,,,"['0.20', '0.20']",1,,837048,,,left,,,,,"['0.2', '-0.2']",,,,,,,stems_all/17.PNG,,,,right,,,,2022.2.5,,,,,,,,,,,,,,,,,,,,,52.63157894736842,,luckodan,,,,,,stems_all/17_dim_sg.PNG,,0.26899999999999125,,,"['-0.2', '-0.2']",right,dan,,,001,,,,,,,"['0.35', '0.35']",,,1,,,,,2024-03-04_11h16.08.754,,dim_pl,MacIntel,novel,generalizability_mini,,,,,,,,,luckonem,,,stems_all/17_dim_pl.PNG,2024-03-04_11h16.11.380,,,,,,,,stems_all/17_2.PNG,,,,1,0,"['0.20', '0.20']",,,,generalizability_mini,nem,,,,,4,,,,
﻿,,,,,"['0.2', '0.2']",,,,001,,bal,837048,,,,,,,,"['0.20', '0.20']",2,,837048,,,left,,,,,"['0.2', '-0.2']",,,,,,,stems_all/1.PNG,,,,right,,,,2022.2.5,,,,,,,,,,,,,,,,,,,,,52.63157894736842,,baldan,,,,,,stems_all/1_dim_sg.PNG,,0.45999999999997954,,,"['-0.2', '-0.2']",right,dan,,,001,,,,,,,"['0.35', '0.35']",,,2,,,,,2024-03-04_11h16.08.754,,dim_pl,MacIntel,familiar,generalizability_mini,,,,,,,,,balnem,,,stems_all/1_dim_pl.PNG,2024-03-04_11h16.11.380,,,,,,,,stems_all/1_2.PNG,,,,1,0,"['0.20', '0.20']",,,,generalizability_mini,nem,,,,,0,,,,
﻿,,,,,"['0.2', '0.2']",,,,001,,berko,837048,,,,,,,,"['0.20', '0.20']",3,,837048,,,right,,,,,"['0.2', '-0.2']",,,,,,,stems_all/2.PNG,,,,right,,,,2022.2.5,,,,,,,,,,,,,,,,,,,,,52.63157894736842,,berkonem,,,,,,stems_all/2_dim_sg.PNG,,0.40699999999998226,,,"['-0.2', '-0.2']",left,nem,,,001,,,,,,,"['0.35', '0.35']",,,3,,,,,2024-03-04_11h16.08.754,,dim_pl,MacIntel,familiar,generalizability_mini,,,,,,,,,berkodan,,,stems_all/2_dim_pl.PNG,2024-03-04_11h16.11.380,,,,,,,,stems_all/2_2.PNG,,,,1,0,"['0.20', '0.20']",,,,generalizability_mini,dan,,,,,1,,,,
﻿,,,,,"['0.2', '0.2']",,,,001,,bassi,837048,,,,,,,,"['0.20', '0.20']",4,,837048,,,left,,,,,"['0.2', '-0.2']",,,,,,,stems_all/16.PNG,,,,right,,,,2022.2.5,,,,,,,,,,,,,,,,,,,,,52.63157894736842,,bassinem,,,,,,stems_all/16_dim_sg.PNG,,0.07899999999997931,,,"['-0.2', '-0.2']",right,nem,,,001,,,,,,,"['0.35', '0.35']",,,4,,,,,2024-03-04_11h16.08.754,,dim_pl,MacIntel,novel,generalizability_mini,,,,,,,,,bassidan,,,stems_all/16_dim_pl.PNG,2024-03-04_11h16.11.380,,,,,,,,stems_all/16_2.PNG,,,,1,0,"['0.20', '0.20']",,,,generalizability_mini,dan,,,,,3,,,,
﻿,,,,,,,,,001,,,837048,,,,,,,,,,,837048,,,,,,,,,,,,,,,,,,,,,,,2022.2.5,,,,,,,,,,,,,,,,,,,,,52.63157894736842,,,,,,,,,,,,,,,,,,001,,,,,,,,,,,,,,,2024-03-04_11h16.08.754,,,MacIntel,,generalizability_mini,,,,,,,,,,,,,2024-03-04_11h16.11.380,,,,,,,,,,,,,,,,,,generalizability_mini,,,,,,,,,,
﻿,,,,,,,,,001,,,837048,,,,,,,,,,,837048,,,,,,,,,,,,,,,,,,,,,,,2022.2.5,,,,,,,,,,,,,,,,,,,,,52.63157894736842,,,,,,,,,,,,,,,,,,001,,,1.3759999999999764,,,,,,,,,,,,2024-03-04_11h16.08.754,,,MacIntel,,generalizability_mini,space,,,,,,,,,,,,2024-03-04_11h16.11.380,,,,,,,,,,,,,,,,,,generalizability_mini,,,,,,,,,,
﻿,,,,,,,,,001,,,356830,,,,,,,,,,,356830,,,,,,,,,,,,,,,,,,,,,,,2022.2.5,,,,,,,,,,,,,,,,,,,,,120.00480019197373,,,0,,,,,,,,,,,,,,,001,,,,,,,,,,,,,,,2024-03-06_18h46.07.778,,,MacIntel,,generalizability_mini,,,,,,,,,,,,,2024-03-06_18h46.28.456,,,,,4,,,,,,,,,,,,,generalizability_mini,,,,,,,,,,
﻿,,,,,,,,,001,1,kora,356830,,,,,,,,,,,356830,,,,,,,,,,,,,,,,,,0,,,,,2022.2.5,,2,,,,"['0.35', '0.35']",,,,0,kora,"[2.499799999952316,2.702799999952319,2.810199999928475,2.8915000000000006,3.0920000000000023]",stems_all/3.PNG,,,"[""k"",""o"",""r"",""a"",""return""]",,,,,120.00480019197373,,,,,,,,,,,,,,,,,,001,,,,,,0,,,,,,,,,2024-03-06_18h46.07.778,,,MacIntel,,generalizability_mini,,,,,,,,,,,,,2024-03-06_18h46.28.456,,kora,,,,,,,,,,,,,,,,generalizability_mini,,,,,,,,,,
﻿,,,,,,,,,001,1,bal,356830,,,,,,,,,,,356830,,,,,,,,,,,,,,,,,,1,,,,,2022.2.5,,0,,,,"['0.35', '0.35']",,,,0,bal,"[2.481799999952319,2.5676000000238446,2.6885000000000012,3.2560000000000002]",stems_all/1.PNG,,,"[""b"",""a"",""l"",""return""]",,,,,120.00480019197373,,,,,,,,,,,,,,,,,,001,,,,,,1,,,,,,,,,2024-03-06_18h46.07.778,,,MacIntel,,generalizability_mini,,,,,,,,,,,,,2024-03-06_18h46.28.456,,bal,,,,,,,,,,,,,,,,generalizability_mini,,,,,,,,,,
﻿,,,,,,,,,001,1,berko,356830,,,,,,,,,,,356830,,,,,,,,,,,,,,,,,,2,,,,,2022.2.5,,1,,,,"['0.35', '0.35']",,,,0,berko,"[2.393399999976161,2.5287999999523194,2.620699999928476,2.8911999999284745,2.964199999928475,3.370600000023842,3.457299999952319,3.7373999999761622,3.8857999999523187,4.3058999999761625]",stems_all/2.PNG,,,"[""b"",""e"",""r"",""d"",""k"",""backspace"",""backspace"",""k"",""o"",""return""]",,,,,120.00480019197373,,,,,,,,,,,,,,,,,,001,,,,,,2,,,,,,,,,2024-03-06_18h46.07.778,,,MacIntel,,generalizability_mini,,,,,,,,,,,,,2024-03-06_18h46.28.456,,berko,,,,,,,,,,,,,,,,generalizability_mini,,,,,,,,,,
﻿,,,,,,,,,001,1,nako,356830,,,,,,,,,,,356830,,,,,,,,,,,,,,,,,,3,,,,,2022.2.5,,3,,,,"['0.35', '0.35']",,,,0,nako,"[2.505900000095366,2.5731000000238424,2.6884999999999977,2.878200000047684,3.126400000095366]",stems_all/4.PNG,,,"[""n"",""a"",""k"",""o"",""return""]",,,,,120.00480019197373,,,,,,,,,,,,,,,,,,001,,,,,,3,,,,,,,,,2024-03-06_18h46.07.778,,,MacIntel,,generalizability_mini,,,,,,,,,,,,,2024-03-06_18h46.28.456,,nako,,,,,,,,,,,,,,,,generalizability_mini,,,,,,,,,,
﻿,4.913699999928475,,,,,,,,001,,bal,356830,,return,,,,,,,,,356830,,,,,1.751600000023842,,0,,,,,,,,,,,,,,,,2022.2.5,,,,,0,"['0.35', '0.35']",,,,,bal,,stems_all/1.PNG,,,,0,,,,120.00480019197373,,,,,,,,,,,,,,,,return,kora,001,,,,,,,,,,,,,,,2024-03-06_18h46.07.778,,,MacIntel,,generalizability_mini,,,,,,,,,,,,,2024-03-06_18h46.28.456,,,,,,,1,,,,,,,,,,,generalizability_mini,,,0,,,,,,,
﻿,8.849100000023839,,,,,,,,001,,nako,356830,,,,,,,,,,,356830,,,,,,,0,,,,,,,,,,,,,,,,2022.2.5,,,,,3,"['0.35', '0.35']",,,,,nako,,stems_all/4.PNG,,,,1,,,,120.00480019197373,,,,,,,,,,,,,,,,return,nako,001,,,,,,,,,,,,,,,2024-03-06_18h46.07.778,,,MacIntel,,generalizability_mini,,,,,,,,,,,,,2024-03-06_18h46.28.456,,,,,,,1,,,,,,,,,,,generalizability_mini,,,1,,,,,,,
﻿,6.947100000023838,,,,,,,,001,,kora,356830,,,,,,,,,,,356830,,,,,,,0,,,,,,,,,,,,,,,,2022.2.5,,,,,2,"['0.35', '0.35']",,,,,kora,,stems_all/3.PNG,,,,2,,,,120.00480019197373,,,,,,,,,,,,,,,,return,noidea,001,,,,,,,,,,,,,,,2024-03-06_18h46.07.778,,,MacIntel,,generalizability_mini,,,,,,,,,,,,,2024-03-06_18h46.28.456,,,,,,,1,,,,,,,,,,,generalizability_mini,,,2,,,,,,,
﻿,5.129700000047677,,,,,,,,001,,berko,356830,,,,,,,,,,,356830,,,,,,,0,,,,,,,,,,,,,,,,2022.2.5,,,,,1,"['0.35', '0.35']",,,,,berko,,stems_all/2.PNG,,,,3,,,,120.00480019197373,,,,,,,,,,,,,,,,return,berko,001,,,,,,,,,,,,,,,2024-03-06_18h46.07.778,,,MacIntel,,generalizability_mini,,,,,,,,,,,,,2024-03-06_18h46.28.456,,,,,,,1,,,,,,,,,,,generalizability_mini,,,3,,,,,,,
﻿,,,4.317000000000007,,,,,0,001,,,356830,,,,,,,,,,,356830,,,,,,,,,,,,,,,,,,,,,,,2022.2.5,,,,1,,,,,,,,,,0,,,,,,,120.00480019197373,,,,,,return,,,,,,,,,,,,001,,,,,,,,,,,,,,,2024-03-06_18h46.07.778,,,MacIntel,,generalizability_mini,,,,,,,0,,,,,,2024-03-06_18h46.28.456,,,,,,,,,,,,,,,,,0,generalizability_mini,,,,,,,,,,
﻿0,,,,,,,,,001,,kora,356830,3_2.PNG,,,,,,korasil,,,,356830,,,,,,,,,sil,,,,,,,,,,,,,,2022.2.5,0,,,,,"['0.35', '0.35']","[""k"",""o"",""r"",""a"",""s"",""i"",""l"",""return""]",,,,korasil,,stems_all/3_2.PNG,,,,,,,0,120.00480019197373,,,,"['-0.2', '-0.18']",,,,,,,,,,,,,,001,,,,,,,,3,,,,,,,2024-03-06_18h46.07.778,,,MacIntel,,generalizability_mini,,,,,,,,3,,,1,,2024-03-06_18h46.28.456,,,,,,,,,,,,,,,,,,generalizability_mini,,,,"[3.0253000000715247,3.323600000023845,3.5645000000000095,3.6418000000715267,4.091000000000008,4.232800000071535,4.39110000002384,4.674600000023844]",,,,,,
﻿1,,,,,,,,,001,,berko,356830,2_dim_sg.PNG,,,,,,berkonem,,,,356830,,,,,,,,,nem,,,,,,,,,,,,,,2022.2.5,1,,,,,"['0.20', '0.20']","[""k"",""backspace"",""b"",""e"",""r"",""k"",""o"",""n"",""a"",""m"",""e"",""return"",""backspace"",""backspace"",""backspace"",""backspace"",""backspace"",""right"",""right"",""right"",""right"",""right"",""right"",""right"",""right"",""right"",""right"",""backspace"",""backspace"",""backspace"",""e"",""m"",""return""]",,,,berkonem,,stems_all/2_dim_sg.PNG,,,,,,,0,120.00480019197373,,,,"['0.2', '0.22']",,,,,,,,,,,,,,001,,,,,,,,1,,,,,,,2024-03-06_18h46.07.778,,,MacIntel,,generalizability_mini,,,,,,,,2,,,1,,2024-03-06_18h46.28.456,,,,,,,,,,,,,,,,,,generalizability_mini,,,,"[1.95770000004768,2.624799999952316,2.9357000000476745,3.5188999999761563,3.5916000000238313,3.7682000000476847,3.9111000000238363,4.517799999952317,4.590999999999994,4.748700000047677,4.876200000047675,5.001899999976146,5.982600000023837,6.109200000047679,6.290899999976148,6.483700000047676,6.668600000023844,7.1983999999761465,7.340499999999992,7.50820000004768,7.651299999952315,7.791700000047683,7.926100000023837,8.073399999976147,8.218700000047676,8.343499999999992,8.482,8.79849999999999,8.9405,9.094100000023843,9.990200000047679,10.101700000047686,10.408299999952305]",,,,,,
﻿2,,,,,,,,,001,,berko,356830,2_dim_sg.PNG,,,,,,berkonem,,,,356830,,,,,,,,,nem,,,,,,,,,,,,,,2022.2.5,2,,,,,"['0.20', '0.20']","[""b"",""e"",""r"",""k"",""o"",""n"",""e"",""m"",""return""]",,,,berkonem,,stems_all/2_dim_sg.PNG,,,,,,,0,120.00480019197373,,,,"['0.2', '0.22']",,,,,,,,,,,,,,001,,,,,,,,2,,,,,,,2024-03-06_18h46.07.778,,,MacIntel,,generalizability_mini,,,,,,,,2,,,1,,2024-03-06_18h46.28.456,,,,,,,,,,,,,,,,,,generalizability_mini,,,,"[1.5233000000715151,1.679200000047672,1.7639999999999958,2.0303999999761544,2.223300000071518,2.388999999999996,2.589600000023836,2.713300000071527,2.8957000000476825]",,,,,,
﻿3,,,,,,,,,001,,bal,356830,1_2.PNG,,,,,,baldan,,,,356830,,,,,,,,,dan,,,,,,,,,,,,,,2022.2.5,3,,,,,"['0.35', '0.35']","[""b"",""a"",""l"",""d"",""a"",""n"",""return""]",,,,baldan,,stems_all/1_2.PNG,,,,,,,0,120.00480019197373,,,,"['-0.2', '-0.18']",,,,,,,,,,,,,,001,,,,,,,,0,,,,,,,2024-03-06_18h46.07.778,,,MacIntel,,generalizability_mini,,,,,,,,1,,,1,,2024-03-06_18h46.28.456,,,,,,,,,,,,,,,,,,generalizability_mini,,,,"[2.6112000000476883,2.7353999999761527,2.894999999999996,3.643299999952319,3.7352999999523178,3.8185000000000002,3.994299999952318]",,,,,,
﻿4,,,,,,,,,001,,kora,356830,3_dim_sg.PNG,,,,,,korashoon,,,,356830,,,,,,,,,shoon,,,,,,,,,,,,,,2022.2.5,4,,,,,"['0.20', '0.20']","[""k"",""o"",""r"",""a"",""s"",""h"",""o"",""o"",""n"",""return""]",,,,korashoon,,stems_all/3_dim_sg.PNG,,,,,,,0,120.00480019197373,,,,"['0.2', '0.22']",,,,,,,,,,,,,,001,,,,,,,,4,,,,,,,2024-03-06_18h46.07.778,,,MacIntel,,generalizability_mini,,,,,,,,3,,,1,,2024-03-06_18h46.28.456,,,,,,,,,,,,,,,,,,generalizability_mini,,,,"[2.3982999999523145,2.5631000000238373,2.672200000047681,2.7503999999761533,2.9638999999761637,3.0832999999523167,3.2057000000476847,3.3402999999523217,3.4892000000476884,3.6907999999523184]",,,,,,
﻿,,,,,,,,,001,,,356830,,,,,,,,,,,356830,,,,,,,,,,,,,,,,,,,,,,,2022.2.5,,,,,,,,,,,,,,,,,,,,,120.00480019197373,,,,,,,,,,,,,,,,,,001,,,,,,,,,,,,return,,,2024-03-06_18h46.07.778,,,MacIntel,,generalizability_mini,,,,0.9303999999761601,,,,,,,,,2024-03-06_18h46.28.456,,,,,,,,,,,,,,,,,,generalizability_mini,,,,,,,,,,
﻿,,,,,,,,,001,,,356830,,,,,,,,,,,356830,,,,,,,,,,,,,,,,,,,,,,,2022.2.5,,,,,,,,,,,,,,,,,,,,,120.00480019197373,,,,,,,,,,,,return,,,,,,001,,,,,,,,,,,,,,,2024-03-06_18h46.07.778,,,MacIntel,,generalizability_mini,,,,,,,,,,2.8131999999284716,,,2024-03-06_18h46.28.456,,,,,,,,,,,,,,,,,,generalizability_mini,,,,,,,,,,
﻿,,"['0.2', '0.22']",,,"['-0.2', '-0.18']",,,,001,,,356830,15_dim_sg.PNG,,,,,,,"['0.35', '0.35']",,shindernem,356830,0,1,,,,,,,,shinder,,,,,,0,,,,,stems_all/15_dim_sg.PNG,,2022.2.5,,,1,,,,,,,,,,,,,,,"['0.20', '0.20']",,,120.00480019197373,novel,,,,,,0,stems_all/15_2.PNG,return,,,,"['0.2', '-0.18']",,,,,001,,,,,,,,,,,,,,,2024-03-06_18h46.07.778,,,MacIntel,,generalizability_mini,,,2.7964999999999947,,,,,,,,,,2024-03-06_18h46.28.456,,,,,,,,stems_all/15_dim_pl.PNG,,,,,,,,,,generalizability_mini,,,,,,,,,,stems_all/15.PNG
﻿,,"['0.2', '-0.18']",,,"['-0.2', '-0.18']",,,,001,,,356830,2_dim_pl.PNG,,,,,,,"['0.35', '0.35']",,berkonem,356830,1,1,,,,,,,,berko,,,,,,1,,,,,stems_all/2_dim_pl.PNG,,2022.2.5,,,3,,,,,,,,,,,,,,,"['0.20', '0.20']",,,120.00480019197373,familiar,,,,,,0,stems_all/2_2.PNG,return,,,,"['0.2', '0.22']",,,,,001,,,,,,,,,,,,,,,2024-03-06_18h46.07.778,,,MacIntel,,generalizability_mini,,,3.6112000000476883,,,,,,,,,,2024-03-06_18h46.28.456,,,,,,,,stems_all/2_dim_sg.PNG,,,,,,,,,,generalizability_mini,,,,,,,,,,stems_all/2.PNG
﻿,,"['0.2', '0.22']",,,"['-0.2', '-0.18']",,,,001,,,356830,1_dim_sg.PNG,,,,,,,"['0.35', '0.35']",,balnem,356830,2,1,,,,,,,,bal,,,,,,2,,,,,stems_all/1_dim_sg.PNG,,2022.2.5,,,0,,,,,,,,,,,,,,,"['0.20', '0.20']",,,120.00480019197373,familiar,,,,,,0,stems_all/1_2.PNG,return,,,,"['0.2', '-0.18']",,,,,001,,,,,,,,,,,,,,,2024-03-06_18h46.07.778,,,MacIntel,,generalizability_mini,,,1.5491999999284758,,,,,,,,,,2024-03-06_18h46.28.456,,,,,,,,stems_all/1_dim_pl.PNG,,,,,,,,,,generalizability_mini,,,,,,,,,,stems_all/1.PNG
﻿,,"['0.2', '-0.18']",,,"['-0.2', '-0.18']",,,,001,,,356830,1_dim_pl.PNG,,,,,,,"['0.35', '0.35']",,balnem,356830,3,1,,,,,,,,bal,,,,,,3,,,,,stems_all/1_dim_pl.PNG,,2022.2.5,,,2,,,,,,,,,,,,,,,"['0.20', '0.20']",,,120.00480019197373,familiar,,,,,,0,stems_all/1_2.PNG,return,,,,"['0.2', '0.22']",,,,,001,,,,,,,,,,,,,,,2024-03-06_18h46.07.778,,,MacIntel,,generalizability_mini,,,2.1343000000715335,,,,,,,,,,2024-03-06_18h46.28.456,,,,,,,,stems_all/1_dim_sg.PNG,,,,,,,,,,generalizability_mini,,,,,,,,,,stems_all/1.PNG
﻿,,"['0.2', '-0.18']",,,"['-0.2', '-0.18']",,,,001,,,356830,13_dim_pl.PNG,,,,,,,"['0.35', '0.35']",,pilnemdanshoon,356830,4,1,,,,,,,,pil,,,,,,4,,,,,stems_all/13_dim_pl.PNG,,2022.2.5,,,5,,,,,,,,,,,,,,,"['0.20', '0.20']",,,120.00480019197373,novel,,,,,,0,stems_all/13_2.PNG,return,,,,"['0.2', '0.22']",,,,,001,,,,,,,,,,,,,,,2024-03-06_18h46.07.778,,,MacIntel,,generalizability_mini,,,3.706900000095345,,,,,,,,,,2024-03-06_18h46.28.456,,,,,,,,stems_all/13_dim_sg.PNG,,,,,,,,,,generalizability_mini,,,,,,,,,,stems_all/13.PNG
﻿,,"['0.2', '-0.18']",,,"['-0.2', '-0.18']",,,,001,,,356830,3_dim_pl.PNG,,,,,,,"['0.35', '0.35']",,koranemdanshoonsil,356830,5,1,,,,,,,,kora,,,,,,5,,,,,stems_all/3_dim_pl.PNG,,2022.2.5,,,4,,,,,,,,,,,,,,,"['0.20', '0.20']",,,120.00480019197373,familiar,,,,,,0,stems_all/3_2.PNG,return,,,,"['0.2', '0.22']",,,,,001,,,,,,,,,,,,,,,2024-03-06_18h46.07.778,,,MacIntel,,generalizability_mini,,,4.569599999904625,,,,,,,,,,2024-03-06_18h46.28.456,,,,,,,,stems_all/3_dim_sg.PNG,,,,,,,,,,generalizability_mini,,,,,,,,,,stems_all/3.PNG
﻿,,,,,,,,,001,,,356830,,,,,,,,,,,356830,,,,,,,,,,,,,,,,,,,,,,,2022.2.5,,,,,,,,,,,,,,,,,,,,,120.00480019197373,,,,,,,,,,,,,,,,,,001,12.654300000071544,,,,,,,,,,,,,,2024-03-06_18h46.07.778,,,MacIntel,,generalizability_mini,,,,,,,,,,,,,2024-03-06_18h46.28.456,,,,,,,,,,,,,,,,,,generalizability_mini,,,,,,,,return,,
﻿,,,,return,,,,,001,,,356830,,,,,,,,,,,356830,,,,,,,,,,,,,,,,,,,,,,,2022.2.5,,,,,,,,,,,,,,,,,,,16.569200000047687,,120.00480019197373,,,,,,,,,,,,,,,,,,001,,,,,,,,,,,,,,,2024-03-06_18h46.07.778,,,MacIntel,,generalizability_mini,,,,,,,,,,,,,2024-03-06_18h46.28.456,,,,,,,,,,,,,,,,,,generalizability_mini,,,,,,,,,,
﻿,,,,,"['0.2', '0.2']",,,,001,,berko,356830,,,,,,,,"['0.20', '0.20']",0,,356830,,,left,,,,,"['0.2', '-0.2']",,,,,,,stems_all/2.PNG,,,,right,,,,2022.2.5,,,,,,,,,,,,,,,,,,,,,120.00480019197373,,berkonem,,,,,,stems_all/2_dim_sg.PNG,,3.3527999999523104,,,"['-0.2', '-0.2']",right,nem,,,001,,,,,,,"['0.35', '0.35']",,,0,,,,,2024-03-06_18h46.07.778,,dim_pl,MacIntel,familiar,generalizability_mini,,,,,,,,,berkodan,,,stems_all/2_dim_pl.PNG,2024-03-06_18h46.28.456,,,,,,,,stems_all/2_2.PNG,,,,1,0,"['0.20', '0.20']",,,,generalizability_mini,dan,,,,,1,,,,
﻿,,,,,"['0.2', '0.2']",,,,001,,lucko,356830,,,,,,,,"['0.20', '0.20']",1,,356830,,,left,,,,,"['0.2', '-0.2']",,,,,,,stems_all/17.PNG,,,,left,,,,2022.2.5,,,,,,,,,,,,,,,,,,,,,120.00480019197373,,luckodan,,,,,,stems_all/17_dim_sg.PNG,,1.6272000000476794,,,"['-0.2', '-0.2']",right,dan,,,001,,,,,,,"['0.35', '0.35']",,,1,,,,,2024-03-06_18h46.07.778,,dim_pl,MacIntel,novel,generalizability_mini,,,,,,,,,luckonem,,,stems_all/17_dim_pl.PNG,2024-03-06_18h46.28.456,,,,,,,,stems_all/17_2.PNG,,,,1,0,"['0.20', '0.20']",,,,generalizability_mini,nem,,,,,4,,,,
﻿,,,,,"['0.2', '0.2']",,,,001,,kora,356830,,,,,,,,"['0.20', '0.20']",2,,356830,,,right,,,,,"['0.2', '-0.2']",,,,,,,stems_all/3.PNG,,,,left,,,,2022.2.5,,,,,,,,,,,,,,,,,,,,,120.00480019197373,,koradan,,,,,,stems_all/3_dim_sg.PNG,,1.8605000000000018,,,"['-0.2', '-0.2']",left,dan,,,001,,,,,,,"['0.35', '0.35']",,,2,,,,,2024-03-06_18h46.07.778,,dim_pl,MacIntel,familiar,generalizability_mini,,,,,,,,,koranem,,,stems_all/3_dim_pl.PNG,2024-03-06_18h46.28.456,,,,,,,,stems_all/3_2.PNG,,,,1,0,"['0.20', '0.20']",,,,generalizability_mini,nem,,,,,2,,,,
﻿,,,,,"['0.2', '0.2']",,,,001,,bal,356830,,,,,,,,"['0.20', '0.20']",3,,356830,,,right,,,,,"['0.2', '-0.2']",,,,,,,stems_all/1.PNG,,,,right,,,,2022.2.5,,,,,,,,,,,,,,,,,,,,,120.00480019197373,,baldan,,,,,,stems_all/1_dim_sg.PNG,,1.2537000000477008,,,"['-0.2', '-0.2']",left,dan,,,001,,,,,,,"['0.35', '0.35']",,,3,,,,,2024-03-06_18h46.07.778,,dim_pl,MacIntel,familiar,generalizability_mini,,,,,,,,,balnem,,,stems_all/1_dim_pl.PNG,2024-03-06_18h46.28.456,,,,,,,,stems_all/1_2.PNG,,,,1,0,"['0.20', '0.20']",,,,generalizability_mini,nem,,,,,0,,,,
﻿,,,,,"['0.2', '0.2']",,,,001,,bassi,356830,,,,,,,,"['0.20', '0.20']",4,,356830,,,left,,,,,"['0.2', '-0.2']",,,,,,,stems_all/16.PNG,,,,left,,,,2022.2.5,,,,,,,,,,,,,,,,,,,,,120.00480019197373,,bassinem,,,,,,stems_all/16_dim_sg.PNG,,0.8997999999523074,,,"['-0.2', '-0.2']",right,nem,,,001,,,,,,,"['0.35', '0.35']",,,4,,,,,2024-03-06_18h46.07.778,,dim_pl,MacIntel,novel,generalizability_mini,,,,,,,,,bassidan,,,stems_all/16_dim_pl.PNG,2024-03-06_18h46.28.456,,,,,,,,stems_all/16_2.PNG,,,,1,0,"['0.20', '0.20']",,,,generalizability_mini,dan,,,,,3,,,,
﻿,,,,,,,,,001,,,356830,,,,,,,,,,,356830,,,,,,,,,,,,,,,,,,,,,,,2022.2.5,,,,,,,,,,,,,,,,,,,,,120.00480019197373,,,,,,,,,,,,,,,,,,001,,,,,,,,,,,,,,,2024-03-06_18h46.07.778,,,MacIntel,,generalizability_mini,,,,,,,,,,,,,2024-03-06_18h46.28.456,,,,,,,,,,,,,,,,,,generalizability_mini,,,,,,,,,,
﻿,,,,,,,,,001,,,356830,,,,,,,,,,,356830,,,,,,,,,,,,,,,,,,,,,,,2022.2.5,,,,,,,,,,,,,,,,,,,,,120.00480019197373,,,,,,,,,,,,,,,,,,001,,,1.8076000000238253,,,,,,,,,,,,2024-03-06_18h46.07.778,,,MacIntel,,generalizability_mini,space,,,,,,,,,,,,2024-03-06_18h46.28.456,,,,,,,,,,,,,,,,,,generalizability_mini,,,,,,,,,,
﻿,,,,,,,,,001,,,339146,,,,,,,,,,,339146,,,,,,,,,,,,,,,,,,,,,,,2022.2.5,,,,,,,,,,,,,,,,,,,,,59.88023952095874,,,100,,,,,,,,,,,,,,,001,,,,,,,,,,,,,,,2024-03-06_10h46.23.693,,,Win32,,generalizability_mini,,,,,,,,,,,,,2024-03-06_10h46.25.872,,,,,3,,,,,,,,,,,,,generalizability_mini,,,,,,,,,,
﻿,,,,,,,,,001,1,kora,339146,,,,,,,,,,,339146,,,,,,,,,,,,,,,,,,0,,,,,2022.2.5,,2,,,,"['0.35', '0.35']",,,,0,kora,"[1.1123999998569492,1.2282999999523163,1.2785999999046327,1.4115999999046327,1.5115999999046323]",stems_all/3.PNG,,,"[""k"",""o"",""r"",""a"",""return""]",,,,,59.88023952095874,,,,,,,,,,,,,,,,,,001,,,,,,0,,,,,,,,,2024-03-06_10h46.23.693,,,Win32,,generalizability_mini,,,,,,,,,,,,,2024-03-06_10h46.25.872,,kora,,,,,,,,,,,,,,,,generalizability_mini,,,,,,,,,,
﻿,,,,,,,,,001,1,berko,339146,,,,,,,,,,,339146,,,,,,,,,,,,,,,,,,1,,,,,2022.2.5,,1,,,,"['0.35', '0.35']",,,,0,berko,"[0.6678999998569495,0.8332000000476842,1.06739999985695,1.1860999999046333,1.2527000000476844,1.4527000000476837]",stems_all/2.PNG,,,"[""b"",""e"",""r"",""k"",""o"",""return""]",,,,,59.88023952095874,,,,,,,,,,,,,,,,,,001,,,,,,1,,,,,,,,,2024-03-06_10h46.23.693,,,Win32,,generalizability_mini,,,,,,,,,,,,,2024-03-06_10h46.25.872,,berko,,,,,,,,,,,,,,,,generalizability_mini,,,,,,,,,,
﻿,,,,,,,,,001,1,nako,339146,,,,,,,,,,,339146,,,,,,,,,,,,,,,,,,2,,,,,2022.2.5,,3,,,,"['0.35', '0.35']",,,,0,nako,"[0.4110999999046321,0.533299999952316,0.616599999904631,0.6672999999523146,0.8380999999046317]",stems_all/4.PNG,,,"[""n"",""a"",""k"",""o"",""return""]",,,,,59.88023952095874,,,,,,,,,,,,,,,,,,001,,,,,,2,,,,,,,,,2024-03-06_10h46.23.693,,,Win32,,generalizability_mini,,,,,,,,,,,,,2024-03-06_10h46.25.872,,nako,,,,,,,,,,,,,,,,generalizability_mini,,,,,,,,,,
﻿,,,,,,,,,001,1,bal,339146,,,,,,,,,,,339146,,,,,,,,,,,,,,,,,,3,,,,,2022.2.5,,0,,,,"['0.35', '0.35']",,,,0,bal,"[0.6342000000476826,0.9617999999523157,1.0529000000953666,1.2087999999523156]",stems_all/1.PNG,,,"[""b"",""a"",""l"",""return""]",,,,,59.88023952095874,,,,,,,,,,,,,,,,,,001,,,,,,3,,,,,,,,,2024-03-06_10h46.23.693,,,Win32,,generalizability_mini,,,,,,,,,,,,,2024-03-06_10h46.25.872,,bal,,,,,,,,,,,,,,,,generalizability_mini,,,,,,,,,,
﻿,1.3953999998569504,,,,,,,,001,,bal,339146,,return,,,,,,,,,339146,,,,,0.375,,0,,,,,,,,,,,,,,,,2022.2.5,,,,,0,"['0.35', '0.35']",,,,,bal,,stems_all/1.PNG,,,,0,,,,59.88023952095874,,,,,,,,,,,,,,,,return,bal,001,,,,,,,,,,,,,,,2024-03-06_10h46.23.693,,,Win32,,generalizability_mini,,,,,,,,,,,,,2024-03-06_10h46.25.872,,,,,,,1,,,,,,,,,,,generalizability_mini,,,0,,,,,,,
﻿,1.5525999999046327,,,,,,,,001,,berko,339146,,,,,,,,,,,339146,,,,,,,0,,,,,,,,,,,,,,,,2022.2.5,,,,,1,"['0.35', '0.35']",,,,,berko,,stems_all/2.PNG,,,,1,,,,59.88023952095874,,,,,,,,,,,,,,,,return,berko,001,,,,,,,,,,,,,,,2024-03-06_10h46.23.693,,,Win32,,generalizability_mini,,,,,,,,,,,,,2024-03-06_10h46.25.872,,,,,,,1,,,,,,,,,,,generalizability_mini,,,1,,,,,,,
﻿,1.8897000000476822,,,,,,,,001,,kora,339146,,,,,,,,,,,339146,,,,,,,0,,,,,,,,,,,,,,,,2022.2.5,,,,,2,"['0.35', '0.35']",,,,,kora,,stems_all/3.PNG,,,,2,,,,59.88023952095874,,,,,,,,,,,,,,,,return,kora,001,,,,,,,,,,,,,,,2024-03-06_10h46.23.693,,,Win32,,generalizability_mini,,,,,,,,,,,,,2024-03-06_10h46.25.872,,,,,,,1,,,,,,,,,,,generalizability_mini,,,2,,,,,,,
﻿,1.2162999999523159,,,,,,,,001,,nako,339146,,,,,,,,,,,339146,,,,,,,0,,,,,,,,,,,,,,,,2022.2.5,,,,,3,"['0.35', '0.35']",,,,,nako,,stems_all/4.PNG,,,,3,,,,59.88023952095874,,,,,,,,,,,,,,,,return,nako,001,,,,,,,,,,,,,,,2024-03-06_10h46.23.693,,,Win32,,generalizability_mini,,,,,,,,,,,,,2024-03-06_10h46.25.872,,,,,,,1,,,,,,,,,,,generalizability_mini,,,3,,,,,,,
﻿,,,1.911599999904631,,,,,0,001,,,339146,,,,,,,,,,,339146,,,,,,,,,,,,,,,,,,,,,,,2022.2.5,,,,1,,,,,,,,,,0,,,,,,,59.88023952095874,,,,,,return,,,,,,,,,,,,001,,,,,,,,,,,,,,,2024-03-06_10h46.23.693,,,Win32,,generalizability_mini,,,,,,,0,,,,,,2024-03-06_10h46.25.872,,,,,,,,,,,,,,,,,0,generalizability_mini,,,,,,,,,,
﻿0,,,,,,,,,001,,bal,339146,1_2.PNG,,,,,,baldan,,,,339146,,,,,,,,,dan,,,,,,,,,,,,,,2022.2.5,0,,,,,"['0.35', '0.35']","[""b"",""a"",""l"",""d"",""a"",""n"",""return""]",,,,baldan,,stems_all/1_2.PNG,,,,,,,0,59.88023952095874,,,,"['-0.2', '-0.18']",,,,,,,,,,,,,,001,,,,,,,,0,,,,,,,2024-03-06_10h46.23.693,,,Win32,,generalizability_mini,,,,,,,,1,,,1,,2024-03-06_10h46.25.872,,,,,,,,,,,,,,,,,,generalizability_mini,,,,"[2.2821000001430534,2.407900000095367,2.5005000000000024,2.5853000001907347,2.6673000001907354,2.7377000000476848,2.892300000190737]",,,,,,
﻿1,,,,,,,,,001,,berko,339146,2_dim_sg.PNG,,,,,,berkonem,,,,339146,,,,,,,,,nem,,,,,,,,,,,,,,2022.2.5,1,,,,,"['0.20', '0.20']","[""b"",""e"",""r"",""k"",""o"",""n"",""e"",""m"",""return""]",,,,berkonem,,stems_all/2_dim_sg.PNG,,,,,,,0,59.88023952095874,,,,"['0.2', '0.22']",,,,,,,,,,,,,,001,,,,,,,,2,,,,,,,2024-03-06_10h46.23.693,,,Win32,,generalizability_mini,,,,,,,,2,,,1,,2024-03-06_10h46.25.872,,,,,,,,,,,,,,,,,,generalizability_mini,,,,"[2.2345000000000006,2.375199999809265,2.4850999999046337,2.5025000000000013,2.5516999998092658,2.785,3.2336999998092644,3.3082999999523146,6.463199999809266]",,,,,,
﻿,,,,,,,,,001,,,882956,,,,,,,,,,,882956,,,,,,,,,,,,,,,,,,,,,,,2022.2.5,,,,,,,,,,,,,,,,,,,,,59.88023952095548,,,100,,,,,,,,,,,,,,,001,,,,,,,,,,,,,,,2024-03-06_10h47.56.228,,,Win32,,generalizability_mini,,,,,,,,,,,,,2024-03-06_10h48.20.389,,,,,1,,,,,,,,,,,,,generalizability_mini,,,,,,,,,,
﻿,,,,,,,,,001,1,bal,882956,,,,,,,,,,,882956,,,,,,,,,,,,,,,,,,0,,,,,2022.2.5,,0,,,,"['0.35', '0.35']",,,,0,bal,"[1.3072000000476862,1.3765999999046343,1.4564000000953712,1.6405999999046372]",stems_all/1.PNG,,,"[""b"",""a"",""l"",""return""]",,,,,59.88023952095548,,,,,,,,,,,,,,,,,,001,,,,,,0,,,,,,,,,2024-03-06_10h47.56.228,,,Win32,,generalizability_mini,,,,,,,,,,,,,2024-03-06_10h48.20.389,,bal,,,,,,,,,,,,,,,,generalizability_mini,,,,,,,,,,
﻿,,,,,,,,,001,1,nako,882956,,,,,,,,,,,882956,,,,,,,,,,,,,,,,,,1,,,,,2022.2.5,,3,,,,"['0.35', '0.35']",,,,0,nako,"[0.6000000000000014,0.755500000000005,0.8438000001907398,0.8998000001907371,1.0986000001430511]",stems_all/4.PNG,,,"[""n"",""a"",""k"",""o"",""return""]",,,,,59.88023952095548,,,,,,,,,,,,,,,,,,001,,,,,,1,,,,,,,,,2024-03-06_10h47.56.228,,,Win32,,generalizability_mini,,,,,,,,,,,,,2024-03-06_10h48.20.389,,nako,,,,,,,,,,,,,,,,generalizability_mini,,,,,,,,,,
﻿,,,,,,,,,001,1,kora,882956,,,,,,,,,,,882956,,,,,,,,,,,,,,,,,,2,,,,,2022.2.5,,2,,,,"['0.35', '0.35']",,,,0,kora,"[0.3432000000476805,0.41809999990462643,0.4995999999046319,0.6010999999046263,0.6662000000476809]",stems_all/3.PNG,,,"[""k"",""o"",""r"",""a"",""return""]",,,,,59.88023952095548,,,,,,,,,,,,,,,,,,001,,,,,,2,,,,,,,,,2024-03-06_10h47.56.228,,,Win32,,generalizability_mini,,,,,,,,,,,,,2024-03-06_10h48.20.389,,kora,,,,,,,,,,,,,,,,generalizability_mini,,,,,,,,,,
﻿,,,,,,,,,001,1,berko,882956,,,,,,,,,,,882956,,,,,,,,,,,,,,,,,,3,,,,,2022.2.5,,1,,,,"['0.35', '0.35']",,,,0,berko,"[0.6562000000476829,0.7817000000476853,0.8654999999999973,0.8995999999046305,0.9483999998569459,1.1494999999999962]",stems_all/2.PNG,,,"[""b"",""e"",""r"",""k"",""o"",""return""]",,,,,59.88023952095548,,,,,,,,,,,,,,,,,,001,,,,,,3,,,,,,,,,2024-03-06_10h47.56.228,,,Win32,,generalizability_mini,,,,,,,,,,,,,2024-03-06_10h48.20.389,,berko,,,,,,,,,,,,,,,,generalizability_mini,,,,,,,,,,
﻿,1.0276000001430532,,,,,,,,001,,nako,882956,,return,,,,,,,,,882956,,,,,0.3506000001430465,,0,,,,,,,,,,,,,,,,2022.2.5,,,,,3,"['0.35', '0.35']",,,,,nako,,stems_all/4.PNG,,,,0,,,,59.88023952095548,,,,,,,,,,,,,,,,return,nako,001,,,,,,,,,,,,,,,2024-03-06_10h47.56.228,,,Win32,,generalizability_mini,,,,,,,,,,,,,2024-03-06_10h48.20.389,,,,,,,1,,,,,,,,,,,generalizability_mini,,,0,,,,,,,
﻿,0.9515999999046301,,,,,,,,001,,kora,882956,,,,,,,,,,,882956,,,,,,,0,,,,,,,,,,,,,,,,2022.2.5,,,,,2,"['0.35', '0.35']",,,,,kora,,stems_all/3.PNG,,,,1,,,,59.88023952095548,,,,,,,,,,,,,,,,return,kora,001,,,,,,,,,,,,,,,2024-03-06_10h47.56.228,,,Win32,,generalizability_mini,,,,,,,,,,,,,2024-03-06_10h48.20.389,,,,,,,1,,,,,,,,,,,generalizability_mini,,,1,,,,,,,
﻿,0.9936999998092659,,,,,,,,001,,bal,882956,,,,,,,,,,,882956,,,,,,,0,,,,,,,,,,,,,,,,2022.2.5,,,,,0,"['0.35', '0.35']",,,,,bal,,stems_all/1.PNG,,,,2,,,,59.88023952095548,,,,,,,,,,,,,,,,return,bal,001,,,,,,,,,,,,,,,2024-03-06_10h47.56.228,,,Win32,,generalizability_mini,,,,,,,,,,,,,2024-03-06_10h48.20.389,,,,,,,1,,,,,,,,,,,generalizability_mini,,,2,,,,,,,
﻿,0.8829999999999956,,,,,,,,001,,berko,882956,,,,,,,,,,,882956,,,,,,,0,,,,,,,,,,,,,,,,2022.2.5,,,,,1,"['0.35', '0.35']",,,,,berko,,stems_all/2.PNG,,,,3,,,,59.88023952095548,,,,,,,,,,,,,,,,return,berko,001,,,,,,,,,,,,,,,2024-03-06_10h47.56.228,,,Win32,,generalizability_mini,,,,,,,,,,,,,2024-03-06_10h48.20.389,,,,,,,1,,,,,,,,,,,generalizability_mini,,,3,,,,,,,
﻿,,,1.1659999999999968,,,,,0,001,,,882956,,,,,,,,,,,882956,,,,,,,,,,,,,,,,,,,,,,,2022.2.5,,,,1,,,,,,,,,,0,,,,,,,59.88023952095548,,,,,,return,,,,,,,,,,,,001,,,,,,,,,,,,,,,2024-03-06_10h47.56.228,,,Win32,,generalizability_mini,,,,,,,0,,,,,,2024-03-06_10h48.20.389,,,,,,,,,,,,,,,,,0,generalizability_mini,,,,,,,,,,
﻿0,,,,,,,,,001,,berko,882956,2_dim_sg.PNG,,,,,,berkonem,,,,882956,,,,,,,,,nem,,,,,,,,,,,,,,2022.2.5,0,,,,,"['0.20', '0.20']","[""b"",""a"",""backspace"",""e"",""k"",""r"",""o"",""n"",""e"",""backspace"",""backspace"",""backspace"",""backspace"",""backspace"",""r"",""k"",""o"",""n"",""e"",""m"",""return""]",,,,berkonem,,stems_all/2_dim_sg.PNG,,,,,,,0,59.88023952095548,,,,"['0.2', '0.22']",,,,,,,,,,,,,,001,,,,,,,,1,,,,,,,2024-03-06_10h47.56.228,,,Win32,,generalizability_mini,,,,,,,,2,,,1,,2024-03-06_10h48.20.389,,,,,,,,,,,,,,,,,,generalizability_mini,,,,"[1.4841000001430515,1.9341000001430544,2.269900000095369,2.402200000047685,2.5024000000953706,2.503,2.600700000047688,2.7341000001430515,2.919600000143056,3.1842000000476887,3.3431000001430533,3.490000000000002,3.642000000000003,3.8022000000476837,3.925100000143054,4.002100000143052,4.054100000143052,4.2007999999523165,4.3221000001430525,4.388900000095369,4.522299999952317]",,,,,,
﻿1,,,,,,,,,001,,bal,882956,1_2.PNG,,,,,,baldan,,,,882956,,,,,,,,,dan,,,,,,,,,,,,,,2022.2.5,1,,,,,"['0.35', '0.35']","[""b"",""a"",""l"",""d"",""a"",""n"",""return""]",,,,baldan,,stems_all/1_2.PNG,,,,,,,0,59.88023952095548,,,,"['-0.2', '-0.18']",,,,,,,,,,,,,,001,,,,,,,,0,,,,,,,2024-03-06_10h47.56.228,,,Win32,,generalizability_mini,,,,,,,,1,,,1,,2024-03-06_10h48.20.389,,,,,,,,,,,,,,,,,,generalizability_mini,,,,"[0.9859000000953699,1.2652000000476846,1.3645999999046339,1.5017999999523184,1.6177000000476838,1.725999999999999,2.2322000000476834]",,,,,,
﻿2,,,,,,,,,001,,berko,882956,2_dim_sg.PNG,,,,,,berkonem,,,,882956,,,,,,,,,nem,,,,,,,,,,,,,,2022.2.5,2,,,,,"['0.20', '0.20']","[""b"",""e"",""r"",""k"",""o"",""n"",""e"",""m"",""return""]",,,,berkonem,,stems_all/2_dim_sg.PNG,,,,,,,0,59.88023952095548,,,,"['0.2', '0.22']",,,,,,,,,,,,,,001,,,,,,,,2,,,,,,,2024-03-06_10h47.56.228,,,Win32,,generalizability_mini,,,,,,,,2,,,1,,2024-03-06_10h48.20.389,,,,,,,,,,,,,,,,,,generalizability_mini,,,,"[1.1335999999046322,1.4050999999046354,1.51109999990463,1.5682999999523162,1.635200000047682,1.9250999999046314,2.0660999999046297,2.1327000000476843,2.263200000047682]",,,,,,
﻿,,,,,,,,,001,,,476976,,,,,,,,,,,476976,,,,,,,,,,,,,,,,,,,,,,,2022.2.5,,,,,,,,,,,,,,,,,,,,,120.00480019199992,,,100,,,,,,,,,,,,,,,001,,,,,,,,,,,,,,,2024-03-13_17h53.10.376,,,MacIntel,,generalizability_mini,,,,,,,,,,,,,2024-03-13_17h53.23.207,,,,,3,,,,,,,,,,,,,generalizability_mini,,,,,,,,,,
﻿,,,,,,,,,001,1,bal,476976,,,,,,,,,,,476976,,,,,,,,,,,,,,,,,,0,,,,,2022.2.5,,0,,,,"['0.35', '0.35']",,,,0,bal,,stems_all/1.PNG,,,,,,,,120.00480019199992,,,,,,,,,,,,,,,,,,001,,,,,,0,,,,,,,,,2024-03-13_17h53.10.376,,,MacIntel,,generalizability_mini,,,,,,,,,,,,,2024-03-13_17h53.23.207,,,,,,,,,,,,,,,,,,generalizability_mini,,,,,,,,,,
﻿,,,,,,,,,001,,,117154,,,,,,,,,,,117154,,,,,,,,,,,,,,,,,,,,,,,2022.2.5,,,,,,,,,,,,,,,,,,,,,120.00480019200647,,,100,,,,,,,,,,,,,,,001,,,,,,,,,,,,,,,2024-03-13_17h59.52.349,,,MacIntel,,generalizability_mini,,,,,,,,,,,,,2024-03-13_17h59.55.482,,,,,4,,,,,,,,,,,,,generalizability_mini,,,,,,,,,,
﻿,,,,,,,,,001,1,nako,117154,,,,,,,,,,,117154,,,,,,,,,,,,,,,,,,0,,,,,2022.2.5,,3,,,,"['0.35', '0.35']",,,,0,nako,"[2.5345,2.6600000000000006,3.1658000000715263,3.374600000023842,3.744399999976159]",stems_all/4.PNG,,,"[""n"",""a"",""k"",""o"",""return""]",,,,,120.00480019200647,,,,,,,,,,,,,,,,,,001,,,,,,0,,,,,,,,,2024-03-13_17h59.52.349,,,MacIntel,,generalizability_mini,,,,,,,,,,,,,2024-03-13_17h59.55.482,,nako,,,,,,,,,,,,,,,,generalizability_mini,,,,,,,,,,
﻿,,,,,,,,,001,1,kora,117154,,,,,,,,,,,117154,,,,,,,,,,,,,,,,,,1,,,,,2022.2.5,,2,,,,"['0.35', '0.35']",,,,0,kora,"[2.2630999999046324,2.4638999999761584,2.5963999999761587,2.6641999999284742,2.8463999999761587]",stems_all/3.PNG,,,"[""k"",""o"",""r"",""a"",""return""]",,,,,120.00480019200647,,,,,,,,,,,,,,,,,,001,,,,,,1,,,,,,,,,2024-03-13_17h59.52.349,,,MacIntel,,generalizability_mini,,,,,,,,,,,,,2024-03-13_17h59.55.482,,kora,,,,,,,,,,,,,,,,generalizability_mini,,,,,,,,,,
﻿,,,,,,,,,001,1,berko,117154,,,,,,,,,,,117154,,,,,,,,,,,,,,,,,,2,,,,,2022.2.5,,1,,,,"['0.35', '0.35']",,,,0,berko,"[2.7017000000476834,3.3308000000715268,3.43039999997616,3.6933000000715275,4.0710000000000015,4.344300000071527,5.106300000071524,5.378499999999999,5.712800000071525,6.163499999999999]",stems_all/2.PNG,,,"[""b"",""e"",""r"",""o"",""backspace"",""j"",""backspace"",""k"",""o"",""return""]",,,,,120.00480019200647,,,,,,,,,,,,,,,,,,001,,,,,,2,,,,,,,,,2024-03-13_17h59.52.349,,,MacIntel,,generalizability_mini,,,,,,,,,,,,,2024-03-13_17h59.55.482,,berko,,,,,,,,,,,,,,,,generalizability_mini,,,,,,,,,,
﻿,,,,,,,,,001,1,bal,117154,,,,,,,,,,,117154,,,,,,,,,,,,,,,,,,3,,,,,2022.2.5,,0,,,,"['0.35', '0.35']",,,,0,bal,"[2.355199999928473,2.454100000023839,2.597199999928474,2.8891000000238414]",stems_all/1.PNG,,,"[""b"",""a"",""l"",""return""]",,,,,120.00480019200647,,,,,,,,,,,,,,,,,,001,,,,,,3,,,,,,,,,2024-03-13_17h59.52.349,,,MacIntel,,generalizability_mini,,,,,,,,,,,,,2024-03-13_17h59.55.482,,bal,,,,,,,,,,,,,,,,generalizability_mini,,,,,,,,,,
﻿,5.699700000047692,,,,,,,,001,,berko,117154,,return,,,,,,,,,117154,,,,,2.229499999999998,,0,,,,,,,,,,,,,,,,2022.2.5,,,,,1,"['0.35', '0.35']",,,,,berko,,stems_all/2.PNG,,,,0,,,,120.00480019200647,,,,,,,,,,,,,,,,return,berko,001,,,,,,,,,,,,,,,2024-03-13_17h59.52.349,,,MacIntel,,generalizability_mini,,,,,,,,,,,,,2024-03-13_17h59.55.482,,,,,,,1,,,,,,,,,,,generalizability_mini,,,0,,,,,,,
﻿,4.4081999999284776,,,,,,,,001,,nako,117154,,,,,,,,,,,117154,,,,,,,0,,,,,,,,,,,,,,,,2022.2.5,,,,,3,"['0.35', '0.35']",,,,,nako,,stems_all/4.PNG,,,,1,,,,120.00480019200647,,,,,,,,,,,,,,,,return,nako,001,,,,,,,,,,,,,,,2024-03-13_17h59.52.349,,,MacIntel,,generalizability_mini,,,,,,,,,,,,,2024-03-13_17h59.55.482,,,,,,,1,,,,,,,,,,,generalizability_mini,,,1,,,,,,,
﻿,9.231200000047686,,,,,,,,001,,bal,117154,,,,,,,,,,,117154,,,,,,,0,,,,,,,,,,,,,,,,2022.2.5,,,,,0,"['0.35', '0.35']",,,,,bal,,stems_all/1.PNG,,,,2,,,,120.00480019200647,,,,,,,,,,,,,,,,return,bal,001,,,,,,,,,,,,,,,2024-03-13_17h59.52.349,,,MacIntel,,generalizability_mini,,,,,,,,,,,,,2024-03-13_17h59.55.482,,,,,,,1,,,,,,,,,,,generalizability_mini,,,2,,,,,,,
﻿,2.1636999999284683,,,,,,,,001,,kora,117154,,,,,,,,,,,117154,,,,,,,0,,,,,,,,,,,,,,,,2022.2.5,,,,,2,"['0.35', '0.35']",,,,,kora,,stems_all/3.PNG,,,,3,,,,120.00480019200647,,,,,,,,,,,,,,,,return,pipa,001,,,,,,,,,,,,,,,2024-03-13_17h59.52.349,,,MacIntel,,generalizability_mini,,,,,,,,,,,,,2024-03-13_17h59.55.482,,,,,,,1,,,,,,,,,,,generalizability_mini,,,3,,,,,,,
﻿,,,2.4611000000238406,,,,,0,001,,,117154,,,,,,,,,,,117154,,,,,,,,,,,,,,,,,,,,,,,2022.2.5,,,,1,,,,,,,,,,0,,,,,,,120.00480019200647,,,,,,return,,,,,,,,,,,,001,,,,,,,,,,,,,,,2024-03-13_17h59.52.349,,,MacIntel,,generalizability_mini,,,,,,,0,,,,,,2024-03-13_17h59.55.482,,,,,,,,,,,,,,,,,0,generalizability_mini,,,,,,,,,,
﻿0,,,,,,,,,001,,kora,117154,3_dim_sg.PNG,,,,,,korashoon,,,,117154,,,,,,,,,shoon,,,,,,,,,,,,,,2022.2.5,0,,,,,"['0.20', '0.20']","[""k"",""o"",""r"",""a"",""s"",""h"",""o"",""o"",""n"",""return""]",,,,korashoon,,stems_all/3_dim_sg.PNG,,,,,,,0,120.00480019200647,,,,"['0.2', '0.22']",,,,,,,,,,,,,,001,,,,,,,,4,,,,,,,2024-03-13_17h59.52.349,,,MacIntel,,generalizability_mini,,,,,,,,3,,,1,,2024-03-13_17h59.55.482,,,,,,,,,,,,,,,,,,generalizability_mini,,,,"[2.559299999952316,2.716200000047678,2.8316000000238404,2.9002000000476826,3.0987999999523126,3.1981000000238424,3.289600000023839,3.426399999976155,3.6072999999523105,3.854899999976155]",,,,,,
﻿1,,,,,,,,,001,,berko,117154,2_dim_sg.PNG,,,,,,berkonem,,,,117154,,,,,,,,,nem,,,,,,,,,,,,,,2022.2.5,1,,,,,"['0.20', '0.20']","[""b"",""e"",""r"",""k"",""o"",""n"",""e"",""m"",""return""]",,,,berkonem,,stems_all/2_dim_sg.PNG,,,,,,,0,120.00480019200647,,,,"['0.2', '0.22']",,,,,,,,,,,,,,001,,,,,,,,2,,,,,,,2024-03-13_17h59.52.349,,,MacIntel,,generalizability_mini,,,,,,,,2,,,1,,2024-03-13_17h59.55.482,,,,,,,,,,,,,,,,,,generalizability_mini,,,,"[2.4223999999761574,2.623599999904627,2.6908999999761534,3.2738999999761518,3.4905999999046315,3.997199999928469,4.073699999928472,4.199799999952312,4.715999999999994]",,,,,,
﻿2,,,,,,,,,001,,bal,117154,1_2.PNG,,,,,,baldan,,,,117154,,,,,,,,,dan,,,,,,,,,,,,,,2022.2.5,2,,,,,"['0.35', '0.35']","[""b"",""a"",""k"",""backspace"",""l"",""d"",""a"",""n"",""return""]",,,,baldan,,stems_all/1_2.PNG,,,,,,,0,120.00480019200647,,,,"['-0.2', '-0.18']",,,,,,,,,,,,,,001,,,,,,,,0,,,,,,,2024-03-13_17h59.52.349,,,MacIntel,,generalizability_mini,,,,,,,,1,,,1,,2024-03-13_17h59.55.482,,,,,,,,,,,,,,,,,,generalizability_mini,,,,"[2.2562000000476843,2.380899999976151,2.571100000023833,3.2721000000238405,3.5062000000476843,3.640399999976154,3.740100000023844,3.8313999999761563,3.9963999999761626]",,,,,,
﻿3,,,,,,,,,001,,kora,117154,3_2.PNG,,,,,,korasil,,,,117154,,,,,,,,,sil,,,,,,,,,,,,,,2022.2.5,3,,,,,"['0.35', '0.35']","[""k"",""o"",""r"",""a"",""s"",""i"",""l"",""return""]",,,,korasil,,stems_all/3_2.PNG,,,,,,,0,120.00480019200647,,,,"['-0.2', '-0.18']",,,,,,,,,,,,,,001,,,,,,,,3,,,,,,,2024-03-13_17h59.52.349,,,MacIntel,,generalizability_mini,,,,,,,,3,,,1,,2024-03-13_17h59.55.482,,,,,,,,,,,,,,,,,,generalizability_mini,,,,"[2.3401999999284726,2.4971999999284833,2.5882999999523264,2.672899999976167,2.8800000000000097,2.9806999999284756,3.172899999976167,3.417099999904636]",,,,,,
﻿4,,,,,,,,,001,,berko,117154,2_dim_sg.PNG,,,,,,berkonem,,,,117154,,,,,,,,,nem,,,,,,,,,,,,,,2022.2.5,4,,,,,"['0.20', '0.20']","[""b"",""e"",""r"",""k"",""o"",""n"",""e"",""m"",""return""]",,,,berkonem,,stems_all/2_dim_sg.PNG,,,,,,,0,120.00480019200647,,,,"['0.2', '0.22']",,,,,,,,,,,,,,001,,,,,,,,1,,,,,,,2024-03-13_17h59.52.349,,,MacIntel,,generalizability_mini,,,,,,,,2,,,1,,2024-03-13_17h59.55.482,,,,,,,,,,,,,,,,,,generalizability_mini,,,,"[2.57260000002384,2.7511000000238397,2.841899999976164,3.047100000023846,3.2220000000000084,3.765800000071522,3.855100000023839,3.981700000047681,4.204499999999996]",,,,,,
﻿,,,,,,,,,001,,,117154,,,,,,,,,,,117154,,,,,,,,,,,,,,,,,,,,,,,2022.2.5,,,,,,,,,,,,,,,,,,,,,120.00480019200647,,,,,,,,,,,,,,,,,,001,,,,,,,,,,,,return,,,2024-03-13_17h59.52.349,,,MacIntel,,generalizability_mini,,,,2.5557000000476933,,,,,,,,,2024-03-13_17h59.55.482,,,,,,,,,,,,,,,,,,generalizability_mini,,,,,,,,,,
﻿,,,,,,,,,001,,,117154,,,,,,,,,,,117154,,,,,,,,,,,,,,,,,,,,,,,2022.2.5,,,,,,,,,,,,,,,,,,,,,120.00480019200647,,,,,,,,,,,,return,,,,,,001,,,,,,,,,,,,,,,2024-03-13_17h59.52.349,,,MacIntel,,generalizability_mini,,,,,,,,,,8.15939999997616,,,2024-03-13_17h59.55.482,,,,,,,,,,,,,,,,,,generalizability_mini,,,,,,,,,,
﻿,,"['0.2', '0.22']",,,"['-0.2', '-0.18']",,,,001,,,117154,1_dim_sg.PNG,,,,,,,"['0.35', '0.35']",,balnem,117154,0,1,,,,,,,,bal,,,,,,0,,,,,stems_all/1_dim_sg.PNG,,2022.2.5,,,0,,,,,,,,,,,,,,,"['0.20', '0.20']",,,120.00480019200647,familiar,,,,,,0,stems_all/1_2.PNG,return,,,,"['0.2', '-0.18']",,,,,001,,,,,,,,,,,,,,,2024-03-13_17h59.52.349,,,MacIntel,,generalizability_mini,,,2.4183000000715253,,,,,,,,,,2024-03-13_17h59.55.482,,,,,,,,stems_all/1_dim_pl.PNG,,,,,,,,,,generalizability_mini,,,,,,,,,,stems_all/1.PNG
﻿,,"['0.2', '-0.18']",,,"['-0.2', '-0.18']",,,,001,,,117154,2_dim_pl.PNG,,,,,,,"['0.35', '0.35']",,berkonem,117154,1,1,,,,,,,,berko,,,,,,1,,,,,stems_all/2_dim_pl.PNG,,2022.2.5,,,3,,,,,,,,,,,,,,,"['0.20', '0.20']",,,120.00480019200647,familiar,,,,,,0,stems_all/2_2.PNG,return,,,,"['0.2', '0.22']",,,,,001,,,,,,,,,,,,,,,2024-03-13_17h59.52.349,,,MacIntel,,generalizability_mini,,,5.572199999928486,,,,,,,,,,2024-03-13_17h59.55.482,,,,,,,,stems_all/2_dim_sg.PNG,,,,,,,,,,generalizability_mini,,,,,,,,,,stems_all/2.PNG
﻿,,"['0.2', '-0.18']",,,"['-0.2', '-0.18']",,,,001,,,117154,1_dim_pl.PNG,,,,,,,"['0.35', '0.35']",,balnem,117154,2,1,,,,,,,,bal,,,,,,2,,,,,stems_all/1_dim_pl.PNG,,2022.2.5,,,2,,,,,,,,,,,,,,,"['0.20', '0.20']",,,120.00480019200647,familiar,,,,,,0,stems_all/1_2.PNG,return,,,,"['0.2', '0.22']",,,,,001,,,,,,,,,,,,,,,2024-03-13_17h59.52.349,,,MacIntel,,generalizability_mini,,,1.6672000000476856,,,,,,,,,,2024-03-13_17h59.55.482,,,,,,,,stems_all/1_dim_sg.PNG,,,,,,,,,,generalizability_mini,,,,,,,,,,stems_all/1.PNG
﻿,,"['0.2', '0.22']",,,"['-0.2', '-0.18']",,,,001,,,117154,15_dim_sg.PNG,,,,,,,"['0.35', '0.35']",,shindernem,117154,3,1,,,,,,,,shinder,,,,,,3,,,,,stems_all/15_dim_sg.PNG,,2022.2.5,,,1,,,,,,,,,,,,,,,"['0.20', '0.20']",,,120.00480019200647,novel,,,,,,0,stems_all/15_2.PNG,return,,,,"['0.2', '-0.18']",,,,,001,,,,,,,,,,,,,,,2024-03-13_17h59.52.349,,,MacIntel,,generalizability_mini,,,4.01510000002385,,,,,,,,,,2024-03-13_17h59.55.482,,,,,,,,stems_all/15_dim_pl.PNG,,,,,,,,,,generalizability_mini,,,,,,,,,,stems_all/15.PNG
﻿,,"['0.2', '-0.18']",,,"['-0.2', '-0.18']",,,,001,,,117154,3_dim_pl.PNG,,,,,,,"['0.35', '0.35']",,koranem,117154,4,1,,,,,,,,kora,,,,,,4,,,,,stems_all/3_dim_pl.PNG,,2022.2.5,,,4,,,,,,,,,,,,,,,"['0.20', '0.20']",,,120.00480019200647,familiar,,,,,,0,stems_all/3_2.PNG,return,,,,"['0.2', '0.22']",,,,,001,,,,,,,,,,,,,,,2024-03-13_17h59.52.349,,,MacIntel,,generalizability_mini,,,1.4162999999523151,,,,,,,,,,2024-03-13_17h59.55.482,,,,,,,,stems_all/3_dim_sg.PNG,,,,,,,,,,generalizability_mini,,,,,,,,,,stems_all/3.PNG
﻿,,"['0.2', '-0.18']",,,"['-0.2', '-0.18']",,,,001,,,117154,13_dim_pl.PNG,,,,,,,"['0.35', '0.35']",,pilnem,117154,5,1,,,,,,,,pil,,,,,,5,,,,,stems_all/13_dim_pl.PNG,,2022.2.5,,,5,,,,,,,,,,,,,,,"['0.20', '0.20']",,,120.00480019200647,novel,,,,,,0,stems_all/13_2.PNG,return,,,,"['0.2', '0.22']",,,,,001,,,,,,,,,,,,,,,2024-03-13_17h59.52.349,,,MacIntel,,generalizability_mini,,,1.914599999904624,,,,,,,,,,2024-03-13_17h59.55.482,,,,,,,,stems_all/13_dim_sg.PNG,,,,,,,,,,generalizability_mini,,,,,,,,,,stems_all/13.PNG
﻿,,,,,,,,,001,,,117154,,,,,,,,,,,117154,,,,,,,,,,,,,,,,,,,,,,,2022.2.5,,,,,,,,,,,,,,,,,,,,,120.00480019200647,,,,,,,,,,,,,,,,,,001,0.8961000000238357,,,,,,,,,,,,,,2024-03-13_17h59.52.349,,,MacIntel,,generalizability_mini,,,,,,,,,,,,,2024-03-13_17h59.55.482,,,,,,,,,,,,,,,,,,generalizability_mini,,,,,,,,return,,
﻿,,,,return,,,,,001,,,117154,,,,,,,,,,,117154,,,,,,,,,,,,,,,,,,,,,,,2022.2.5,,,,,,,,,,,,,,,,,,,4.319799999952323,,120.00480019200647,,,,,,,,,,,,,,,,,,001,,,,,,,,,,,,,,,2024-03-13_17h59.52.349,,,MacIntel,,generalizability_mini,,,,,,,,,,,,,2024-03-13_17h59.55.482,,,,,,,,,,,,,,,,,,generalizability_mini,,,,,,,,,,
﻿,,,,,"['0.2', '0.2']",,,,001,,berko,117154,,,,,,,,"['0.20', '0.20']",0,,117154,,,right,,,,,"['0.2', '-0.2']",,,,,,,stems_all/2.PNG,,,,right,,,,2022.2.5,,,,,,,,,,,,,,,,,,,,,120.00480019200647,,berkonem,,,,,,stems_all/2_dim_sg.PNG,,0.9013999999761779,,,"['-0.2', '-0.2']",left,nem,,,001,,,,,,,"['0.35', '0.35']",,,0,,,,,2024-03-13_17h59.52.349,,dim_pl,MacIntel,familiar,generalizability_mini,,,,,,,,,berkodan,,,stems_all/2_dim_pl.PNG,2024-03-13_17h59.55.482,,,,,,,,stems_all/2_2.PNG,,,,1,0,"['0.20', '0.20']",,,,generalizability_mini,dan,,,,,1,,,,
﻿,,,,,"['0.2', '0.2']",,,,001,,kora,117154,,,,,,,,"['0.20', '0.20']",1,,117154,,,right,,,,,"['0.2', '-0.2']",,,,,,,stems_all/3.PNG,,,,right,,,,2022.2.5,,,,,,,,,,,,,,,,,,,,,120.00480019200647,,koradan,,,,,,stems_all/3_dim_sg.PNG,,1.0772999999523165,,,"['-0.2', '-0.2']",left,dan,,,001,,,,,,,"['0.35', '0.35']",,,1,,,,,2024-03-13_17h59.52.349,,dim_pl,MacIntel,familiar,generalizability_mini,,,,,,,,,koranem,,,stems_all/3_dim_pl.PNG,2024-03-13_17h59.55.482,,,,,,,,stems_all/3_2.PNG,,,,1,0,"['0.20', '0.20']",,,,generalizability_mini,nem,,,,,2,,,,
﻿,,,,,"['0.2', '0.2']",,,,001,,bal,117154,,,,,,,,"['0.20', '0.20']",2,,117154,,,right,,,,,"['0.2', '-0.2']",,,,,,,stems_all/1.PNG,,,,right,,,,2022.2.5,,,,,,,,,,,,,,,,,,,,,120.00480019200647,,baldan,,,,,,stems_all/1_dim_sg.PNG,,0.5672999999523256,,,"['-0.2', '-0.2']",left,dan,,,001,,,,,,,"['0.35', '0.35']",,,2,,,,,2024-03-13_17h59.52.349,,dim_pl,MacIntel,familiar,generalizability_mini,,,,,,,,,balnem,,,stems_all/1_dim_pl.PNG,2024-03-13_17h59.55.482,,,,,,,,stems_all/1_2.PNG,,,,1,0,"['0.20', '0.20']",,,,generalizability_mini,nem,,,,,0,,,,
﻿,,,,,"['0.2', '0.2']",,,,001,,lucko,117154,,,,,,,,"['0.20', '0.20']",3,,117154,,,right,,,,,"['0.2', '-0.2']",,,,,,,stems_all/17.PNG,,,,right,,,,2022.2.5,,,,,,,,,,,,,,,,,,,,,120.00480019200647,,luckodan,,,,,,stems_all/17_dim_sg.PNG,,0.49490000009535606,,,"['-0.2', '-0.2']",left,dan,,,001,,,,,,,"['0.35', '0.35']",,,3,,,,,2024-03-13_17h59.52.349,,dim_pl,MacIntel,novel,generalizability_mini,,,,,,,,,luckonem,,,stems_all/17_dim_pl.PNG,2024-03-13_17h59.55.482,,,,,,,,stems_all/17_2.PNG,,,,1,0,"['0.20', '0.20']",,,,generalizability_mini,nem,,,,,4,,,,
﻿,,,,,"['0.2', '0.2']",,,,001,,bassi,117154,,,,,,,,"['0.20', '0.20']",4,,117154,,,left,,,,,"['0.2', '-0.2']",,,,,,,stems_all/16.PNG,,,,left,,,,2022.2.5,,,,,,,,,,,,,,,,,,,,,120.00480019200647,,bassinem,,,,,,stems_all/16_dim_sg.PNG,,0.8774999999999977,,,"['-0.2', '-0.2']",right,nem,,,001,,,,,,,"['0.35', '0.35']",,,4,,,,,2024-03-13_17h59.52.349,,dim_pl,MacIntel,novel,generalizability_mini,,,,,,,,,bassidan,,,stems_all/16_dim_pl.PNG,2024-03-13_17h59.55.482,,,,,,,,stems_all/16_2.PNG,,,,1,0,"['0.20', '0.20']",,,,generalizability_mini,dan,,,,,3,,,,
﻿,,,,,,,,,001,,,117154,,,,,,,,,,,117154,,,,,,,,,,,,,,,,,,,,,,,2022.2.5,,,,,,,,,,,,,,,,,,,,,120.00480019200647,,,,,,,,,,,,,,,,,,001,,,,,,,,,,,,,,,2024-03-13_17h59.52.349,,,MacIntel,,generalizability_mini,,,,,,,,,,,,,2024-03-13_17h59.55.482,,,,,,,,,,,,,,,,,,generalizability_mini,,,,,,,,,,
﻿,,,,,,,,,001,,,117154,,,,,,,,,,,117154,,,,,,,,,,,,,,,,,,,,,,,2022.2.5,,,,,,,,,,,,,,,,,,,,,120.00480019200647,,,,,,,,,,,,,,,,,,001,,,1.3683999999761625,,,,,,,,,,,,2024-03-13_17h59.52.349,,,MacIntel,,generalizability_mini,space,,,,,,,,,,,,2024-03-13_17h59.55.482,,,,,,,,,,,,,,,,,,generalizability_mini,,,,,,,,,,
﻿,,,,,,,,,001,,,894692,,,,,,,,,,,894692,,,,,,,,,,,,,,,,,,,,,,,2022.2.5,,,,,,,,,,,,,,,,,,,,,59.88023952094243,,,0,,,,,,,,,,,,,,,001,,,,,,,,,,,,,,,2024-04-07_22h02.53.277,,,Win32,,generalizability_mini,,,,,,,,,,,,,2024-04-07_22h03.30.576,,,,,3,,,,,,,,,,,,,generalizability_mini,,,,,,,,,,
﻿,,,,,,,English,,001,,,894692,,,return,0,1.850999999999999,,,,,,894692,,,,space,,,,,,,space,1.0698000001907388,space,2.5452999997138974,,,,,,1.1082000002861037,,0.6223000001907408,2022.2.5,,,,,,,,7.119799999713898,,,,,,,space,,,,,,59.88023952094243,,,,,1,,,,,,0,,,,,,,001,,0,,,4.43,,,,,,,,,,2024-04-07_22h02.53.277,0.7548999996185302,,Win32,,generalizability_mini,,space,,,,,,,,,,,2024-04-07_22h03.30.576,Korean,,return,,,,,,0.9289000000953678,0,2.441499999999998,,,,space,num_enter,,generalizability_mini,,2.2127000002861053,,,space,,space,,26,
﻿,,,,,,return,,,001,,,894692,,,,,,,,,,,894692,,,,,,,,,,,,,,,,,32.840299999713906,,,,,,2022.2.5,,,,,,,,,,,,,,,,,,,,,59.88023952094243,,,,,,,,,,,,,,,,,,001,,,,,,,,,,,,,,,2024-04-07_22h02.53.277,,,Win32,,generalizability_mini,,,,,,,,,,,,,2024-04-07_22h03.30.576,,,,,,,,,,,,,,,,,,generalizability_mini,,,,,,,,,,
﻿,,,,,,,,,001,,,894692,,,,,,,,,,,894692,,,,,,,,,,,,,,,,,,,,,,,2022.2.5,,,,,,,,,,,,,,,,,,,,,59.88023952094243,,,,,,,,,,,,,,,,,,001,,,,4.412900000095362,,,,,,,,,,,2024-04-07_22h02.53.277,,,Win32,,generalizability_mini,,,,,,num_enter,,,,,,,2024-04-07_22h03.30.576,,,,,,,,,,,,,,,,,,generalizability_mini,,,,,,,,,,
﻿,,,,,,,,,001,1,bal,894692,,,,,,,,,,,894692,,,,,,,,,,,,,,,,,,0,,,,,2022.2.5,,0,,,,"['0.35', '0.35']",,,,0,bal,"[1.8410999999046425,1.9590999999046375,2.0670999999046415,2.4001999998092742]",stems_all/1.PNG,,,"[""b"",""a"",""l"",""return""]",,,,,59.88023952094243,,,,,,,,,,,,,,,,,,001,,,,,,0,,,,,,,,,2024-04-07_22h02.53.277,,,Win32,,generalizability_mini,,,,,,,,,,,,,2024-04-07_22h03.30.576,,bal,,,,,,,,,,,,,,,,generalizability_mini,,,,,,,,,,
﻿,,,,,,,,,001,1,kudom,894692,,,,,,,,,,,894692,,,,,,,,,,,,,,,,,,1,,,,,2022.2.5,,7,,,,"['0.35', '0.35']",,,,0,kudom,"[1.0527000002860945,1.2186000003814712,1.325499999999991,1.4026000003814687,1.4916000003814673,1.650200000286091]",stems_all/8.PNG,,,"[""k"",""u"",""d"",""o"",""m"",""return""]",,,,,59.88023952094243,,,,,,,,,,,,,,,,,,001,,,,,,1,,,,,,,,,2024-04-07_22h02.53.277,,,Win32,,generalizability_mini,,,,,,,,,,,,,2024-04-07_22h03.30.576,,kudom,,,,,,,,,,,,,,,,generalizability_mini,,,,,,,,,,
﻿,,,,,,,,,001,1,chool,894692,,,,,,,,,,,894692,,,,,,,,,,,,,,,,,,2,,,,,2022.2.5,,6,,,,"['0.35', '0.35']",,,,0,chool,"[1.0412999997138996,1.322099999904637,1.4306999998092635,1.5167999997138963,1.5508999996185224,2.0988999996185242,2.9643999996185215,3.055099999904627,3.1321999998092593,3.299299999713895,3.4650000000000034,3.6204999999999927]",stems_all/7.PNG,,,"[""b"",""e"",""r"",""k"",""o"",""backspace"",""c"",""h"",""o"",""o"",""l"",""return""]",,,,,59.88023952094243,,,,,,,,,,,,,,,,,,001,,,,,,2,,,,,,,,,2024-04-07_22h02.53.277,,,Win32,,generalizability_mini,,,,,,,,,,,,,2024-04-07_22h03.30.576,,chool,,,,,,,,,,,,,,,,generalizability_mini,,,,,,,,,,
﻿,,,,,,,,,001,1,bin,894692,,,,,,,,,,,894692,,,,,,,,,,,,,,,,,,3,,,,,2022.2.5,,10,,,,"['0.35', '0.35']",,,,0,bin,"[2.0993000001907234,2.206400000095357,2.335400000095362,2.5073000001907246]",stems_all/11.PNG,,,"[""b"",""i"",""n"",""return""]",,,,,59.88023952094243,,,,,,,,,,,,,,,,,,001,,,,,,3,,,,,,,,,2024-04-07_22h02.53.277,,,Win32,,generalizability_mini,,,,,,,,,,,,,2024-04-07_22h03.30.576,,bin,,,,,,,,,,,,,,,,generalizability_mini,,,,,,,,,,
﻿,,,,,,,,,001,1,kora,894692,,,,,,,,,,,894692,,,,,,,,,,,,,,,,,,4,,,,,2022.2.5,,2,,,,"['0.35', '0.35']",,,,0,kora,"[1.319500000000005,1.4246000003814743,1.802500000000009,1.9576000003814755,2.0675000000000097]",stems_all/3.PNG,,,"[""k"",""o"",""r"",""a"",""return""]",,,,,59.88023952094243,,,,,,,,,,,,,,,,,,001,,,,,,4,,,,,,,,,2024-04-07_22h02.53.277,,,Win32,,generalizability_mini,,,,,,,,,,,,,2024-04-07_22h03.30.576,,kora,,,,,,,,,,,,,,,,generalizability_mini,,,,,,,,,,
﻿,,,,,,,,,001,1,vorke,894692,,,,,,,,,,,894692,,,,,,,,,,,,,,,,,,5,,,,,2022.2.5,,9,,,,"['0.35', '0.35']",,,,0,vorke,"[2.200400000095371,2.285799999713902,2.4357999997138933,2.513999999999996,2.6459000000953665,2.7457999997138955]",stems_all/10.PNG,,,"[""v"",""o"",""r"",""k"",""e"",""return""]",,,,,59.88023952094243,,,,,,,,,,,,,,,,,,001,,,,,,5,,,,,,,,,2024-04-07_22h02.53.277,,,Win32,,generalizability_mini,,,,,,,,,,,,,2024-04-07_22h03.30.576,,vorke,,,,,,,,,,,,,,,,generalizability_mini,,,,,,,,,,
﻿,,,,,,,,,001,1,nako,894692,,,,,,,,,,,894692,,,,,,,,,,,,,,,,,,6,,,,,2022.2.5,,3,,,,"['0.35', '0.35']",,,,0,nako,"[1.4743999996185266,1.852399999618541,2.0593999996185346,2.1694999999999993,2.2453999996185416,2.335499999999996,2.610599999904622]",stems_all/4.PNG,,,"[""k"",""backspace"",""n"",""a"",""k"",""o"",""return""]",,,,,59.88023952094243,,,,,,,,,,,,,,,,,,001,,,,,,6,,,,,,,,,2024-04-07_22h02.53.277,,,Win32,,generalizability_mini,,,,,,,,,,,,,2024-04-07_22h03.30.576,,nako,,,,,,,,,,,,,,,,generalizability_mini,,,,,,,,,,
﻿,,,,,,,,,001,1,berko,894692,,,,,,,,,,,894692,,,,,,,,,,,,,,,,,,7,,,,,2022.2.5,,1,,,,"['0.35', '0.35']",,,,0,berko,"[1.1641999998092558,1.2731999998092647,1.3390999999046187,1.4021999998092554,1.4457999997138984,1.6964999999999861]",stems_all/2.PNG,,,"[""b"",""e"",""r"",""k"",""o"",""return""]",,,,,59.88023952094243,,,,,,,,,,,,,,,,,,001,,,,,,7,,,,,,,,,2024-04-07_22h02.53.277,,,Win32,,generalizability_mini,,,,,,,,,,,,,2024-04-07_22h03.30.576,,berko,,,,,,,,,,,,,,,,generalizability_mini,,,,,,,,,,
﻿,,,,,,,,,001,1,osto,894692,,,,,,,,,,,894692,,,,,,,,,,,,,,,,,,8,,,,,2022.2.5,,8,,,,"['0.35', '0.35']",,,,0,osto,"[1.242999999999995,1.311000000000007,1.515599999904623,1.6040999999046335,2.1820999999046364,2.350099999904643,2.5090999999046346,2.660199999809265,2.8621999998092633,2.9731999998092817,3.05440000009537,3.1340999999046346,3.357199999809268]",stems_all/9.PNG,,,"[""v"",""o"",""r"",""k"",""backspace"",""backspace"",""backspace"",""backspace"",""o"",""s"",""t"",""o"",""return""]",,,,,59.88023952094243,,,,,,,,,,,,,,,,,,001,,,,,,8,,,,,,,,,2024-04-07_22h02.53.277,,,Win32,,generalizability_mini,,,,,,,,,,,,,2024-04-07_22h03.30.576,,osto,,,,,,,,,,,,,,,,generalizability_mini,,,,,,,,,,
﻿,,,,,,,,,001,1,pipa,894692,,,,,,,,,,,894692,,,,,,,,,,,,,,,,,,9,,,,,2022.2.5,,4,,,,"['0.35', '0.35']",,,,0,pipa,"[2.0700999999046417,2.1880999999046367,2.311099999904627,2.439800000190729,2.6050999999046383]",stems_all/5.PNG,,,"[""p"",""i"",""p"",""a"",""return""]",,,,,59.88023952094243,,,,,,,,,,,,,,,,,,001,,,,,,9,,,,,,,,,2024-04-07_22h02.53.277,,,Win32,,generalizability_mini,,,,,,,,,,,,,2024-04-07_22h03.30.576,,pipa,,,,,,,,,,,,,,,,generalizability_mini,,,,,,,,,,
﻿,,,,,,,,,001,1,mero,894692,,,,,,,,,,,894692,,,,,,,,,,,,,,,,,,10,,,,,2022.2.5,,11,,,,"['0.35', '0.35']",,,,0,mero,"[2.231599999904631,2.316200000286102,2.390099999904635,2.4660999999046282,2.6670000000000016]",stems_all/12.PNG,,,"[""m"",""e"",""r"",""o"",""return""]",,,,,59.88023952094243,,,,,,,,,,,,,,,,,,001,,,,,,10,,,,,,,,,2024-04-07_22h02.53.277,,,Win32,,generalizability_mini,,,,,,,,,,,,,2024-04-07_22h03.30.576,,mero,,,,,,,,,,,,,,,,generalizability_mini,,,,,,,,,,
﻿,,,,,,,,,001,1,bani,894692,,,,,,,,,,,894692,,,,,,,,,,,,,,,,,,11,,,,,2022.2.5,,5,,,,"['0.35', '0.35']",,,,0,bani,"[1.2020999999046182,1.6207999997139098,2.168699999809263,2.3170000000000073,2.501499999999993,2.6378999996185257,2.733099999904624,2.7778999996185405,3.0039999999999907]",stems_all/6.PNG,,,"[""p"",""i"",""backspace"",""backspace"",""b"",""a"",""n"",""i"",""return""]",,,,,59.88023952094243,,,,,,,,,,,,,,,,,,001,,,,,,11,,,,,,,,,2024-04-07_22h02.53.277,,,Win32,,generalizability_mini,,,,,,,,,,,,,2024-04-07_22h03.30.576,,bani,,,,,,,,,,,,,,,,generalizability_mini,,,,,,,,,,
﻿,,,,,,,,,001,1,bani,894692,,,,,,,,,,,894692,,,,,,,,,,,,,,,,,,12,,,,,2022.2.5,,5,,,,"['0.35', '0.35']",,,,1,bani,"[0.7876999998092629,1.2605999999046276,1.3655999999046173,1.4507999997138938,1.7117999997138895]",stems_all/6.PNG,,,"[""b"",""a"",""n"",""i"",""return""]",,,,,59.88023952094243,,,,,,,,,,,,,,,,,,001,,,,,,0,,,,,,,,,2024-04-07_22h02.53.277,,,Win32,,generalizability_mini,,,,,,,,,,,,,2024-04-07_22h03.30.576,,bani,,,,,,,,,,,,,,,,generalizability_mini,,,,,,,,,,
﻿,,,,,,,,,001,1,bin,894692,,,,,,,,,,,894692,,,,,,,,,,,,,,,,,,13,,,,,2022.2.5,,10,,,,"['0.35', '0.35']",,,,1,bin,"[2.079800000190744,2.180900000095363,2.3240999999046323,2.4550000000000125]",stems_all/11.PNG,,,"[""b"",""i"",""n"",""return""]",,,,,59.88023952094243,,,,,,,,,,,,,,,,,,001,,,,,,1,,,,,,,,,2024-04-07_22h02.53.277,,,Win32,,generalizability_mini,,,,,,,,,,,,,2024-04-07_22h03.30.576,,bin,,,,,,,,,,,,,,,,generalizability_mini,,,,,,,,,,
﻿,,,,,,,,,001,1,kudom,894692,,,,,,,,,,,894692,,,,,,,,,,,,,,,,,,14,,,,,2022.2.5,,7,,,,"['0.35', '0.35']",,,,1,kudom,"[1.4914999999999736,1.7039999999999793,1.838099999904614,1.9159000000953483,2.0260999999046305,2.150999999999982]",stems_all/8.PNG,,,"[""k"",""u"",""d"",""o"",""m"",""return""]",,,,,59.88023952094243,,,,,,,,,,,,,,,,,,001,,,,,,2,,,,,,,,,2024-04-07_22h02.53.277,,,Win32,,generalizability_mini,,,,,,,,,,,,,2024-04-07_22h03.30.576,,kudom,,,,,,,,,,,,,,,,generalizability_mini,,,,,,,,,,
﻿,,,,,,,,,001,1,pipa,894692,,,,,,,,,,,894692,,,,,,,,,,,,,,,,,,15,,,,,2022.2.5,,4,,,,"['0.35', '0.35']",,,,1,pipa,"[1.993099999904615,2.1340999999046346,2.2220999999046285,2.3589999999999804,2.4750999999046144]",stems_all/5.PNG,,,"[""p"",""i"",""p"",""a"",""return""]",,,,,59.88023952094243,,,,,,,,,,,,,,,,,,001,,,,,,3,,,,,,,,,2024-04-07_22h02.53.277,,,Win32,,generalizability_mini,,,,,,,,,,,,,2024-04-07_22h03.30.576,,pipa,,,,,,,,,,,,,,,,generalizability_mini,,,,,,,,,,
﻿,,,,,,,,,001,1,nako,894692,,,,,,,,,,,894692,,,,,,,,,,,,,,,,,,16,,,,,2022.2.5,,3,,,,"['0.35', '0.35']",,,,1,nako,"[1.4613000001907324,1.604300000190733,1.671300000190712,1.7573000001907246,2.0073000001907246]",stems_all/4.PNG,,,"[""n"",""a"",""k"",""o"",""return""]",,,,,59.88023952094243,,,,,,,,,,,,,,,,,,001,,,,,,4,,,,,,,,,2024-04-07_22h02.53.277,,,Win32,,generalizability_mini,,,,,,,,,,,,,2024-04-07_22h03.30.576,,nako,,,,,,,,,,,,,,,,generalizability_mini,,,,,,,,,,
﻿,,,,,,,,,001,1,vorke,894692,,,,,,,,,,,894692,,,,,,,,,,,,,,,,,,17,,,,,2022.2.5,,9,,,,"['0.35', '0.35']",,,,1,vorke,"[2.085099999904628,2.1744000000953463,2.31259999990462,2.3767000002860925,2.532599999904619,2.6109000000953415]",stems_all/10.PNG,,,"[""v"",""o"",""r"",""k"",""e"",""return""]",,,,,59.88023952094243,,,,,,,,,,,,,,,,,,001,,,,,,5,,,,,,,,,2024-04-07_22h02.53.277,,,Win32,,generalizability_mini,,,,,,,,,,,,,2024-04-07_22h03.30.576,,vorke,,,,,,,,,,,,,,,,generalizability_mini,,,,,,,,,,
﻿,,,,,,,,,001,1,osto,894692,,,,,,,,,,,894692,,,,,,,,,,,,,,,,,,18,,,,,2022.2.5,,8,,,,"['0.35', '0.35']",,,,1,osto,"[2.4076999998092674,2.499599999904632,2.589499999999987,2.6491999998092695,2.8504999999999825]",stems_all/9.PNG,,,"[""o"",""s"",""t"",""o"",""return""]",,,,,59.88023952094243,,,,,,,,,,,,,,,,,,001,,,,,,6,,,,,,,,,2024-04-07_22h02.53.277,,,Win32,,generalizability_mini,,,,,,,,,,,,,2024-04-07_22h03.30.576,,osto,,,,,,,,,,,,,,,,generalizability_mini,,,,,,,,,,
﻿,,,,,,,,,001,1,mero,894692,,,,,,,,,,,894692,,,,,,,,,,,,,,,,,,19,,,,,2022.2.5,,11,,,,"['0.35', '0.35']",,,,1,mero,"[0.8744999999999834,0.9505000000000052,1.03440000009536,1.102400000095372,1.3255000000000052]",stems_all/12.PNG,,,"[""m"",""e"",""r"",""o"",""return""]",,,,,59.88023952094243,,,,,,,,,,,,,,,,,,001,,,,,,7,,,,,,,,,2024-04-07_22h02.53.277,,,Win32,,generalizability_mini,,,,,,,,,,,,,2024-04-07_22h03.30.576,,mero,,,,,,,,,,,,,,,,generalizability_mini,,,,,,,,,,
﻿,,,,,,,,,001,1,kora,894692,,,,,,,,,,,894692,,,,,,,,,,,,,,,,,,20,,,,,2022.2.5,,2,,,,"['0.35', '0.35']",,,,1,kora,"[0.6404000000953545,0.8213000001907176,1.1692000002861107,1.3397000002860864,1.3874999999999886,1.4889000000953558,1.5863000001907324]",stems_all/3.PNG,,,"[""k"",""u"",""backspace"",""o"",""r"",""a"",""return""]",,,,,59.88023952094243,,,,,,,,,,,,,,,,,,001,,,,,,8,,,,,,,,,2024-04-07_22h02.53.277,,,Win32,,generalizability_mini,,,,,,,,,,,,,2024-04-07_22h03.30.576,,kora,,,,,,,,,,,,,,,,generalizability_mini,,,,,,,,,,
﻿,,,,,,,,,001,1,berko,894692,,,,,,,,,,,894692,,,,,,,,,,,,,,,,,,21,,,,,2022.2.5,,1,,,,"['0.35', '0.35']",,,,1,berko,"[0.802400000095389,0.9194000000953793,0.9827999997139045,1.022400000095388,1.0742999997139009,1.302400000095389]",stems_all/2.PNG,,,"[""b"",""e"",""r"",""k"",""o"",""return""]",,,,,59.88023952094243,,,,,,,,,,,,,,,,,,001,,,,,,9,,,,,,,,,2024-04-07_22h02.53.277,,,Win32,,generalizability_mini,,,,,,,,,,,,,2024-04-07_22h03.30.576,,berko,,,,,,,,,,,,,,,,generalizability_mini,,,,,,,,,,
﻿,,,,,,,,,001,1,chool,894692,,,,,,,,,,,894692,,,,,,,,,,,,,,,,,,22,,,,,2022.2.5,,6,,,,"['0.35', '0.35']",,,,1,chool,"[1.067599999904644,1.109499999999997,1.1660999999046453,1.3285000000000196,1.4767000002861153,1.6155999999046458]",stems_all/7.PNG,,,"[""c"",""h"",""o"",""o"",""l"",""return""]",,,,,59.88023952094243,,,,,,,,,,,,,,,,,,001,,,,,,10,,,,,,,,,2024-04-07_22h02.53.277,,,Win32,,generalizability_mini,,,,,,,,,,,,,2024-04-07_22h03.30.576,,chool,,,,,,,,,,,,,,,,generalizability_mini,,,,,,,,,,
﻿,,,,,,,,,001,1,bal,894692,,,,,,,,,,,894692,,,,,,,,,,,,,,,,,,23,,,,,2022.2.5,,0,,,,"['0.35', '0.35']",,,,1,bal,"[0.8204000000953613,0.979200000286113,1.041400000095365,1.236400000095358]",stems_all/1.PNG,,,"[""b"",""a"",""l"",""return""]",,,,,59.88023952094243,,,,,,,,,,,,,,,,,,001,,,,,,11,,,,,,,,,2024-04-07_22h02.53.277,,,Win32,,generalizability_mini,,,,,,,,,,,,,2024-04-07_22h03.30.576,,bal,,,,,,,,,,,,,,,,generalizability_mini,,,,,,,,,,
﻿,,,,,,,,,001,1,osto,894692,,,,,,,,,,,894692,,,,,,,,,,,,,,,,,,24,,,,,2022.2.5,,8,,,,"['0.35', '0.35']",,,,2,osto,"[0.942699999809264,1.088400000095362,1.17340000009537,1.253400000095354,1.8754000000953681]",stems_all/9.PNG,,,"[""o"",""s"",""t"",""o"",""return""]",,,,,59.88023952094243,,,,,,,,,,,,,,,,,,001,,,,,,0,,,,,,,,,2024-04-07_22h02.53.277,,,Win32,,generalizability_mini,,,,,,,,,,,,,2024-04-07_22h03.30.576,,osto,,,,,,,,,,,,,,,,generalizability_mini,,,,,,,,,,
﻿,,,,,,,,,001,1,vorke,894692,,,,,,,,,,,894692,,,,,,,,,,,,,,,,,,25,,,,,2022.2.5,,9,,,,"['0.35', '0.35']",,,,2,vorke,"[1.0801999998092526,1.154300000190716,1.3071999998092565,1.366199999809254,1.5071999998092451,1.6523000001907349]",stems_all/10.PNG,,,"[""v"",""o"",""r"",""k"",""e"",""return""]",,,,,59.88023952094243,,,,,,,,,,,,,,,,,,001,,,,,,1,,,,,,,,,2024-04-07_22h02.53.277,,,Win32,,generalizability_mini,,,,,,,,,,,,,2024-04-07_22h03.30.576,,vorke,,,,,,,,,,,,,,,,generalizability_mini,,,,,,,,,,
﻿,,,,,,,,,001,1,kudom,894692,,,,,,,,,,,894692,,,,,,,,,,,,,,,,,,26,,,,,2022.2.5,,7,,,,"['0.35', '0.35']",,,,2,kudom,"[0.7491999998092638,0.953000000000003,1.0494999999999948,1.1185999999046317,1.2164999999999964,1.3566999998092797]",stems_all/8.PNG,,,"[""k"",""u"",""d"",""o"",""m"",""return""]",,,,,59.88023952094243,,,,,,,,,,,,,,,,,,001,,,,,,2,,,,,,,,,2024-04-07_22h02.53.277,,,Win32,,generalizability_mini,,,,,,,,,,,,,2024-04-07_22h03.30.576,,kudom,,,,,,,,,,,,,,,,generalizability_mini,,,,,,,,,,
﻿,,,,,,,,,001,1,kora,894692,,,,,,,,,,,894692,,,,,,,,,,,,,,,,,,27,,,,,2022.2.5,,2,,,,"['0.35', '0.35']",,,,2,kora,"[1.1072000002860989,1.2332000002861037,1.3772000002861091,1.4832000002861037,1.557300000190736]",stems_all/3.PNG,,,"[""k"",""o"",""r"",""a"",""return""]",,,,,59.88023952094243,,,,,,,,,,,,,,,,,,001,,,,,,3,,,,,,,,,2024-04-07_22h02.53.277,,,Win32,,generalizability_mini,,,,,,,,,,,,,2024-04-07_22h03.30.576,,kora,,,,,,,,,,,,,,,,generalizability_mini,,,,,,,,,,
﻿,,,,,,,,,001,1,bin,894692,,,,,,,,,,,894692,,,,,,,,,,,,,,,,,,28,,,,,2022.2.5,,10,,,,"['0.35', '0.35']",,,,2,bin,"[2.1048000001907496,2.225999999999999,2.3673000001907383,2.5253000001907537]",stems_all/11.PNG,,,"[""b"",""i"",""n"",""return""]",,,,,59.88023952094243,,,,,,,,,,,,,,,,,,001,,,,,,4,,,,,,,,,2024-04-07_22h02.53.277,,,Win32,,generalizability_mini,,,,,,,,,,,,,2024-04-07_22h03.30.576,,bin,,,,,,,,,,,,,,,,generalizability_mini,,,,,,,,,,
﻿,,,,,,,,,001,1,nako,894692,,,,,,,,,,,894692,,,,,,,,,,,,,,,,,,29,,,,,2022.2.5,,3,,,,"['0.35', '0.35']",,,,2,nako,"[0.7241999998092581,0.8359999999999843,0.887199999809269,0.9921999998092588,1.2321999998092679]",stems_all/4.PNG,,,"[""n"",""a"",""k"",""o"",""return""]",,,,,59.88023952094243,,,,,,,,,,,,,,,,,,001,,,,,,5,,,,,,,,,2024-04-07_22h02.53.277,,,Win32,,generalizability_mini,,,,,,,,,,,,,2024-04-07_22h03.30.576,,nako,,,,,,,,,,,,,,,,generalizability_mini,,,,,,,,,,
﻿,,,,,,,,,001,1,pipa,894692,,,,,,,,,,,894692,,,,,,,,,,,,,,,,,,30,,,,,2022.2.5,,4,,,,"['0.35', '0.35']",,,,2,pipa,"[1.4894999999999925,1.62509999990462,1.7421999998092588,1.8822999997138936,2.0135999999046135]",stems_all/5.PNG,,,"[""p"",""i"",""p"",""a"",""return""]",,,,,59.88023952094243,,,,,,,,,,,,,,,,,,001,,,,,,6,,,,,,,,,2024-04-07_22h02.53.277,,,Win32,,generalizability_mini,,,,,,,,,,,,,2024-04-07_22h03.30.576,,pipa,,,,,,,,,,,,,,,,generalizability_mini,,,,,,,,,,
﻿,,,,,,,,,001,1,bal,894692,,,,,,,,,,,894692,,,,,,,,,,,,,,,,,,31,,,,,2022.2.5,,0,,,,"['0.35', '0.35']",,,,2,bal,"[0.8468000001907399,0.9298000001907383,1.091800000190716,1.2697000002860932]",stems_all/1.PNG,,,"[""b"",""a"",""l"",""return""]",,,,,59.88023952094243,,,,,,,,,,,,,,,,,,001,,,,,,7,,,,,,,,,2024-04-07_22h02.53.277,,,Win32,,generalizability_mini,,,,,,,,,,,,,2024-04-07_22h03.30.576,,bal,,,,,,,,,,,,,,,,generalizability_mini,,,,,,,,,,
﻿,,,,,,,,,001,1,chool,894692,,,,,,,,,,,894692,,,,,,,,,,,,,,,,,,32,,,,,2022.2.5,,6,,,,"['0.35', '0.35']",,,,2,chool,"[0.5930999999046378,0.666699999809282,0.746900000095394,0.892699999809281,1.0638000001907528,1.2134000000953904]",stems_all/7.PNG,,,"[""c"",""h"",""o"",""o"",""l"",""return""]",,,,,59.88023952094243,,,,,,,,,,,,,,,,,,001,,,,,,8,,,,,,,,,2024-04-07_22h02.53.277,,,Win32,,generalizability_mini,,,,,,,,,,,,,2024-04-07_22h03.30.576,,chool,,,,,,,,,,,,,,,,generalizability_mini,,,,,,,,,,
﻿,,,,,,,,,001,1,bani,894692,,,,,,,,,,,894692,,,,,,,,,,,,,,,,,,33,,,,,2022.2.5,,5,,,,"['0.35', '0.35']",,,,2,bani,"[0.9928000001907549,1.1237000002861066,1.218800000190754,1.2638000001907415,1.4489000000953638]",stems_all/6.PNG,,,"[""b"",""a"",""n"",""i"",""return""]",,,,,59.88023952094243,,,,,,,,,,,,,,,,,,001,,,,,,9,,,,,,,,,2024-04-07_22h02.53.277,,,Win32,,generalizability_mini,,,,,,,,,,,,,2024-04-07_22h03.30.576,,bani,,,,,,,,,,,,,,,,generalizability_mini,,,,,,,,,,
﻿,,,,,,,,,001,1,mero,894692,,,,,,,,,,,894692,,,,,,,,,,,,,,,,,,34,,,,,2022.2.5,,11,,,,"['0.35', '0.35']",,,,2,mero,"[0.6046000003814811,0.7087000002860862,0.8057000002860946,0.8319999999999936,1.2056000003814802]",stems_all/12.PNG,,,"[""m"",""e"",""r"",""o"",""return""]",,,,,59.88023952094243,,,,,,,,,,,,,,,,,,001,,,,,,10,,,,,,,,,2024-04-07_22h02.53.277,,,Win32,,generalizability_mini,,,,,,,,,,,,,2024-04-07_22h03.30.576,,mero,,,,,,,,,,,,,,,,generalizability_mini,,,,,,,,,,
﻿,,,,,,,,,001,1,berko,894692,,,,,,,,,,,894692,,,,,,,,,,,,,,,,,,35,,,,,2022.2.5,,1,,,,"['0.35', '0.35']",,,,2,berko,"[0.8049000000953868,1.1160000000000139,1.1993000001907603,1.5413000001907449,1.6871000003814913,1.782900000095367,1.8341000003814827,1.8821000003814845,1.9388000001907528,2.1731000003814813]",stems_all/2.PNG,,,"[""b"",""a"",""l"",""backspace"",""backspace"",""e"",""r"",""k"",""o"",""return""]",,,,,59.88023952094243,,,,,,,,,,,,,,,,,,001,,,,,,11,,,,,,,,,2024-04-07_22h02.53.277,,,Win32,,generalizability_mini,,,,,,,,,,,,,2024-04-07_22h03.30.576,,berko,,,,,,,,,,,,,,,,generalizability_mini,,,,,,,,,,
﻿,,,,,,,,,001,1,nako,894692,,,,,,,,,,,894692,,,,,,,,,,,,,,,,,,36,,,,,2022.2.5,,3,,,,"['0.35', '0.35']",,,,3,nako,"[0.7138999996185191,0.8025999999046292,0.9068999996185312,1.0007999997139052,1.2417999997138907]",stems_all/4.PNG,,,"[""n"",""a"",""k"",""o"",""return""]",,,,,59.88023952094243,,,,,,,,,,,,,,,,,,001,,,,,,0,,,,,,,,,2024-04-07_22h02.53.277,,,Win32,,generalizability_mini,,,,,,,,,,,,,2024-04-07_22h03.30.576,,nako,,,,,,,,,,,,,,,,generalizability_mini,,,,,,,,,,
﻿,,,,,,,,,001,1,kora,894692,,,,,,,,,,,894692,,,,,,,,,,,,,,,,,,37,,,,,2022.2.5,,2,,,,"['0.35', '0.35']",,,,3,kora,"[0.8131999998092567,1.0120000000000005,1.088099999904614,1.2010999999046135,1.2901999998092606]",stems_all/3.PNG,,,"[""k"",""o"",""r"",""a"",""return""]",,,,,59.88023952094243,,,,,,,,,,,,,,,,,,001,,,,,,1,,,,,,,,,2024-04-07_22h02.53.277,,,Win32,,generalizability_mini,,,,,,,,,,,,,2024-04-07_22h03.30.576,,kora,,,,,,,,,,,,,,,,generalizability_mini,,,,,,,,,,
﻿,,,,,,,,,001,1,osto,894692,,,,,,,,,,,894692,,,,,,,,,,,,,,,,,,38,,,,,2022.2.5,,8,,,,"['0.35', '0.35']",,,,3,osto,"[2.016300000190739,2.126900000095361,2.2265999999046358,2.3000999999046314,2.5219000000953713]",stems_all/9.PNG,,,"[""o"",""s"",""t"",""o"",""return""]",,,,,59.88023952094243,,,,,,,,,,,,,,,,,,001,,,,,,2,,,,,,,,,2024-04-07_22h02.53.277,,,Win32,,generalizability_mini,,,,,,,,,,,,,2024-04-07_22h03.30.576,,osto,,,,,,,,,,,,,,,,generalizability_mini,,,,,,,,,,
﻿,,,,,,,,,001,1,bani,894692,,,,,,,,,,,894692,,,,,,,,,,,,,,,,,,39,,,,,2022.2.5,,5,,,,"['0.35', '0.35']",,,,3,bani,"[1.5004000000953681,1.7040999999046562,1.7872000002861057,1.8565999999046596,2.0423000001907496]",stems_all/6.PNG,,,"[""b"",""a"",""n"",""i"",""return""]",,,,,59.88023952094243,,,,,,,,,,,,,,,,,,001,,,,,,3,,,,,,,,,2024-04-07_22h02.53.277,,,Win32,,generalizability_mini,,,,,,,,,,,,,2024-04-07_22h03.30.576,,bani,,,,,,,,,,,,,,,,generalizability_mini,,,,,,,,,,
﻿,,,,,,,,,001,1,vorke,894692,,,,,,,,,,,894692,,,,,,,,,,,,,,,,,,40,,,,,2022.2.5,,9,,,,"['0.35', '0.35']",,,,3,vorke,"[1.1399999999999864,1.2184000000953574,1.3500999999046428,1.4159999999999968,1.5542000002861016,1.65309999990464]",stems_all/10.PNG,,,"[""v"",""o"",""r"",""k"",""e"",""return""]",,,,,59.88023952094243,,,,,,,,,,,,,,,,,,001,,,,,,4,,,,,,,,,2024-04-07_22h02.53.277,,,Win32,,generalizability_mini,,,,,,,,,,,,,2024-04-07_22h03.30.576,,vorke,,,,,,,,,,,,,,,,generalizability_mini,,,,,,,,,,
﻿,,,,,,,,,001,1,bin,894692,,,,,,,,,,,894692,,,,,,,,,,,,,,,,,,41,,,,,2022.2.5,,10,,,,"['0.35', '0.35']",,,,3,bin,"[1.1350000000000193,2.0335000000000036,2.240000000000009,2.3380000000000223,2.5250000000000057,2.633800000190746]",stems_all/11.PNG,,,"[""o"",""backspace"",""b"",""i"",""n"",""return""]",,,,,59.88023952094243,,,,,,,,,,,,,,,,,,001,,,,,,5,,,,,,,,,2024-04-07_22h02.53.277,,,Win32,,generalizability_mini,,,,,,,,,,,,,2024-04-07_22h03.30.576,,bin,,,,,,,,,,,,,,,,generalizability_mini,,,,,,,,,,
﻿,,,,,,,,,001,1,pipa,894692,,,,,,,,,,,894692,,,,,,,,,,,,,,,,,,42,,,,,2022.2.5,,4,,,,"['0.35', '0.35']",,,,3,pipa,"[2.2280999999046287,2.3906999998092715,2.4847999997138857,2.602499999999992,2.7680000000000007]",stems_all/5.PNG,,,"[""p"",""i"",""p"",""a"",""return""]",,,,,59.88023952094243,,,,,,,,,,,,,,,,,,001,,,,,,6,,,,,,,,,2024-04-07_22h02.53.277,,,Win32,,generalizability_mini,,,,,,,,,,,,,2024-04-07_22h03.30.576,,pipa,,,,,,,,,,,,,,,,generalizability_mini,,,,,,,,,,
﻿,,,,,,,,,001,1,kudom,894692,,,,,,,,,,,894692,,,,,,,,,,,,,,,,,,43,,,,,2022.2.5,,7,,,,"['0.35', '0.35']",,,,3,kudom,"[0.6939999999999884,0.9004999999999939,1.0132999997138938,1.1049999999999898,1.2210999999046237,1.3669000000953702]",stems_all/8.PNG,,,"[""k"",""u"",""d"",""o"",""m"",""return""]",,,,,59.88023952094243,,,,,,,,,,,,,,,,,,001,,,,,,7,,,,,,,,,2024-04-07_22h02.53.277,,,Win32,,generalizability_mini,,,,,,,,,,,,,2024-04-07_22h03.30.576,,kudom,,,,,,,,,,,,,,,,generalizability_mini,,,,,,,,,,
﻿,,,,,,,,,001,1,mero,894692,,,,,,,,,,,894692,,,,,,,,,,,,,,,,,,44,,,,,2022.2.5,,11,,,,"['0.35', '0.35']",,,,3,mero,"[1.1515999999046187,1.279699999809253,1.3425000000000011,1.395599999904647,1.5705999999046298]",stems_all/12.PNG,,,"[""m"",""e"",""r"",""o"",""return""]",,,,,59.88023952094243,,,,,,,,,,,,,,,,,,001,,,,,,8,,,,,,,,,2024-04-07_22h02.53.277,,,Win32,,generalizability_mini,,,,,,,,,,,,,2024-04-07_22h03.30.576,,mero,,,,,,,,,,,,,,,,generalizability_mini,,,,,,,,,,
﻿,,,,,,,,,001,1,chool,894692,,,,,,,,,,,894692,,,,,,,,,,,,,,,,,,45,,,,,2022.2.5,,6,,,,"['0.35', '0.35']",,,,3,chool,"[0.9833000001907237,1.0402000002860916,1.1074000000953674,1.2924999999999898,1.4672000002861125,1.591700000286096]",stems_all/7.PNG,,,"[""c"",""h"",""o"",""o"",""l"",""return""]",,,,,59.88023952094243,,,,,,,,,,,,,,,,,,001,,,,,,9,,,,,,,,,2024-04-07_22h02.53.277,,,Win32,,generalizability_mini,,,,,,,,,,,,,2024-04-07_22h03.30.576,,chool,,,,,,,,,,,,,,,,generalizability_mini,,,,,,,,,,
﻿,,,,,,,,,001,1,bal,894692,,,,,,,,,,,894692,,,,,,,,,,,,,,,,,,46,,,,,2022.2.5,,0,,,,"['0.35', '0.35']",,,,3,bal,"[0.9882000002860991,1.133900000095366,1.1879999999999882,1.3758000001907362]",stems_all/1.PNG,,,"[""b"",""a"",""l"",""return""]",,,,,59.88023952094243,,,,,,,,,,,,,,,,,,001,,,,,,10,,,,,,,,,2024-04-07_22h02.53.277,,,Win32,,generalizability_mini,,,,,,,,,,,,,2024-04-07_22h03.30.576,,bal,,,,,,,,,,,,,,,,generalizability_mini,,,,,,,,,,
﻿,,,,,,,,,001,1,berko,894692,,,,,,,,,,,894692,,,,,,,,,,,,,,,,,,47,,,,,2022.2.5,,1,,,,"['0.35', '0.35']",,,,3,berko,"[1.0305000000000177,1.140900000095371,1.2218000001907399,1.2858000001907612,1.3498000001907258,1.5668000001907672]",stems_all/2.PNG,,,"[""b"",""e"",""r"",""k"",""o"",""return""]",,,,,59.88023952094243,,,,,,,,,,,,,,,,,,001,,,,,,11,,,,,,,,,2024-04-07_22h02.53.277,,,Win32,,generalizability_mini,,,,,,,,,,,,,2024-04-07_22h03.30.576,,berko,,,,,,,,,,,,,,,,generalizability_mini,,,,,,,,,,
﻿,,,,,,,,,001,1,bin,894692,,,,,,,,,,,894692,,,,,,,,,,,,,,,,,,48,,,,,2022.2.5,,10,,,,"['0.35', '0.35']",,,,4,bin,"[1.1570999999046307,1.5032000002860855,2.0293000001907444,2.1502000002861337,2.319500000000005,2.4698000001907303]",stems_all/11.PNG,,,"[""o"",""backspace"",""b"",""i"",""n"",""return""]",,,,,59.88023952094243,,,,,,,,,,,,,,,,,,001,,,,,,0,,,,,,,,,2024-04-07_22h02.53.277,,,Win32,,generalizability_mini,,,,,,,,,,,,,2024-04-07_22h03.30.576,,bin,,,,,,,,,,,,,,,,generalizability_mini,,,,,,,,,,
