key_resp_14.rt,alt_image1_location,__experimentName,key_resp_21.rt,experiment_start_resp.rt,key_resp_18.keys,demo_info.thisRepN,key_resp_4.keys,key_resp_11.rt,textbox_7.text,key_resp_14.keys,test_loop.ran,date,key_resp_26.rt,expName,pretraining_plus_test.thisTrialN,condition,consent_resp.keys,key_resp_5.rt,pretraining_loop.ran,prod_label,production_block.ran,key_resp_13.rt,pretraining_loop.thisN,image_size,key_resp_3.rt,test_loop.thisTrialN,key_resp_4.rt,consent_resp.rt,forced_choice_block.thisIndex,textbox_3.text,key_resp_26.keys,prod_condition,image1,label2,key_resp_15.rt,textbox_2.text,alt_image1,filepath,key_resp_17.rt,training_block.thisIndex,pretraining,training_block.thisN,label1,key_resp_15.keys,training_block.thisRepN,demo_info.thisTrialN,production_block.thisRepN,textbox_4.text,key_resp_17.keys,key_resp_21.keys,key_resp_6.keys,production_block.thisIndex,pretraining_loop.thisTrialN,key_resp_18.rt,suffix1,forced_choice_block.thisN,comp_label1_location,demo_info.thisIndex,alt_image2_location,demo_info.ran,key_resp_10.rt,key_resp_22.keys,test_loop.thisIndex,prod_resp.text,pretraining_loop.thisRepN,key_resp_13.keys,suffix2,training_block.thisTrialN,key_resp_23.keys,alt_image2,key_resp_20.rt,pretraining_loop.thisIndex,comp_image_location,textbox_6.text,production_block.thisTrialN,key_resp_24.keys,key_resp_10.keys,forced_choice_block.thisTrialN,key_resp_16.rt,session,prod_image2_size,forced_choice_block.thisRepN,key_resp_20.keys,stem_filename,comp_image,comp_condition_stem,key_resp_5.keys,prod_image2,key_resp_9.rt,comp_image_size,pretraining_plus_test.order,prod_image1,key_resp_7.keys,key_resp_23.rt,psychopyVersion,comp_label2_location,suffix,key_resp_9.keys,key_resp_11.keys,key_resp_22.rt,test_loop.thisN,comp_condition_suffix,textbox_5.text,key_resp_6.rt,key_resp_16.keys,forced_choice_block.ran,demo_info.thisN,textbox.text,__session,alt_image2_size,stem,pretraining_plus_test.thisRepN,test_loop.thisRepN,alt_image1_size,textbox_10.text,__participant,key_resp_8.rt,frameRate,participant,key_resp_8.keys,pretraining_plus_test.thisN,__datetime,file,experiment_start_resp.keys,training_block.ran,OS,pretraining_plus_test.thisIndex,key_resp_24.rt,textbox_9.text,production_block.thisN,pretraining_loop.order,label,pretraining_plus_test.ran,key_resp_3.keys,key_resp_7.rt,prod_image2_location
﻿,,generalizability,,,,,,,,,,2023-09-26_11h35.07.023,,generalizability,,4,,,,,,,,,,,,,,,,,,,,,,,,,0,,,,,,,,,,,,,,,,,,,,,,,,,,,,,,,,,,,,,,,001,,,,,,,,,,,,,,,2022.2.5,,,,,,,,,,,,,,001,,,,,,,269724,,71.42857142857143,269724,,,2023-09-26_11h34.44.401,,,,MacIntel,,,,,,,,,,
﻿,,generalizability,,,,,,2.8320000000000007,,,,2023-09-26_11h35.07.023,,generalizability,,,,,,,,,,,,,,,,,,,,,,,,,,,,,,,,,,,,,,,,,,,,,,,,,,,,,,,,,,,,,,,,,,001,,,,,,,,,,,,,,,2022.2.5,,,,space,,,,,,,,,,001,,,,,,,269724,,71.42857142857143,269724,,,2023-09-26_11h34.44.401,,,,MacIntel,,,,,,,,,,
﻿,,generalizability,,,,0,,,,,,2023-09-26_11h35.07.023,,generalizability,,,space,4.034999999999997,,,,,,,5.499000000000009,,,30.989000000000004,,"w
",,,,,,"m
",,,,,,,,,,0,,"Нижний Новгород
",,,return,,,,,,,0,,1,173.948,,,,,,,,,,,,,"engma, learned it in school, and from tutors, and reading and then eventually immersion, mostly accented but some native too once immersed
",,,return,,,001,,,,,,,return,,5.168999999999997,,,,return,,2022.2.5,,,return,,,,,"ru
",2.1089999999999947,,,0,"38
",001,,,,,,,269724,1872.115,71.42857142857143,269724,return,,2023-09-26_11h34.44.401,,,,MacIntel,,,,,,,,space,2.615000000000009,
﻿,,generalizability,,,,,space,,,,,2023-09-26_11h35.07.023,,generalizability,,,,,,,,,,,,,273.75199999999995,,,,,,,,,,,,,,,,,,,,,,,,,,,,,,,,,,,,,,,,,,,,,,,,,,,,,001,,,,,,,,,,,,,,,2022.2.5,,,,,,,,,,,,,,001,,,,,,,269724,,71.42857142857143,269724,,,2023-09-26_11h34.44.401,,,,MacIntel,,,,,,,,,,
﻿,,generalizability,,1.6480000000001382,,,,,,,,2023-09-26_11h35.07.023,,generalizability,,,,,,,,,,,,,,,,,,,,,,,,,,,,,,,,,,,,,,,,,,,,,,,,,,,,,,,,,,,,,,,,,,001,,,,,,,,,,,,,,,2022.2.5,,,,,,,,,,,,,,001,,,,,,,269724,,71.42857142857143,269724,,,2023-09-26_11h34.44.401,,space,,MacIntel,,,,,,,,,,
﻿,,generalizability,,,l,,,,balsil,,,2023-09-26_11h35.07.023,,generalizability,,,,,,,,,,"['0.35', '0.35']",,,,,,,,,,,,,,stems_all/1_2.PNG,,24,,0,,,0,,,,,,,,,3.788000000000011,,,,,,,,,,,,,,0,,,,,,,,,,,,001,,,,1,,,,,,,,,,,2022.2.5,,sil,,,,,,,,,,,,001,,bal,,,,,269724,,71.42857142857143,269724,,,2023-09-26_11h34.44.401,1_2.PNG,,1,MacIntel,,,,,,balsil,,,,
﻿,,generalizability,,,n,,,,baldan,,,2023-09-26_11h35.07.023,,generalizability,,,,,,,,,,"['0.35', '0.35']",,,,,,,,,,,,,,stems_all/1_2.PNG,,12,,1,,,0,,,,,,,,,1.86200000000008,,,,,,,,,,,,,,1,,,,,,,,,,,,001,,,,1,,,,,,,,,,,2022.2.5,,dan,,,,,,,,,,,,001,,bal,,,,,269724,,71.42857142857143,269724,,,2023-09-26_11h34.44.401,1_2.PNG,,1,MacIntel,,,,,,baldan,,,,
﻿,,generalizability,,,n,,,,koradan,,,2023-09-26_11h35.07.023,,generalizability,,,,,,,,,,"['0.35', '0.35']",,,,,,,,,,,,,,stems_all/10_2.PNG,,21,,2,,,0,,,,,,,,,1.9519999999997708,,,,,,,,,,,,,,2,,,,,,,,,,,,001,,,,3,,,,,,,,,,,2022.2.5,,dan,,,,,,,,,,,,001,,kora,,,,,269724,,71.42857142857143,269724,,,2023-09-26_11h34.44.401,10_2.PNG,,1,MacIntel,,,,,,koradan,,,,
﻿,,generalizability,,,m,,,,nakonem,,,2023-09-26_11h35.07.023,,generalizability,,,,,,,,,,"['0.20', '0.20']",,,,,,,,,,,,,,stems_all/1_dim_sg.PNG,,3,,3,,,0,,,,,,,,,2.1799999999998363,,,,,,,,,,,,,,3,,,,,,,,,,,,001,,,,4,,,,,,,,,,,2022.2.5,,nem,,,,,,,,,,,,001,,nako,,,,,269724,,71.42857142857143,269724,,,2023-09-26_11h34.44.401,1_dim_sg.PNG,,1,MacIntel,,,,,,nakonem,,,,
﻿,,generalizability,,,n,,,,baldan,,,2023-09-26_11h35.07.023,,generalizability,,,,,,,,,,"['0.35', '0.35']",,,,,,,,,,,,,,stems_all/4_2.PNG,,15,,4,,,0,,,,,,,,,2.561000000000149,,,,,,,,,,,,,,4,,,,,,,,,,,,001,,,,1,,,,,,,,,,,2022.2.5,,dan,,,,,,,,,,,,001,,bal,,,,,269724,,71.42857142857143,269724,,,2023-09-26_11h34.44.401,4_2.PNG,,1,MacIntel,,,,,,baldan,,,,
﻿,,generalizability,,,m,,,,binnem,,,2023-09-26_11h35.07.023,,generalizability,,,,,,,,,,"['0.20', '0.20']",,,,,,,,,,,,,,stems_all/3_dim_sg.PNG,,10,,5,,,0,,,,,,,,,1.9909999999999854,,,,,,,,,,,,,,5,,,,,,,,,,,,001,,,,11,,,,,,,,,,,2022.2.5,,nem,,,,,,,,,,,,001,,bin,,,,,269724,,71.42857142857143,269724,,,2023-09-26_11h34.44.401,3_dim_sg.PNG,,1,MacIntel,,,,,,binnem,,,,
﻿,,generalizability,,,m,,,,vorkenem,,,2023-09-26_11h35.07.023,,generalizability,,,,,,,,,,"['0.20', '0.20']",,,,,,,,,,,,,,stems_all/3_dim_sg.PNG,,9,,6,,,0,,,,,,,,,1.9429999999997563,,,,,,,,,,,,,,6,,,,,,,,,,,,001,,,,10,,,,,,,,,,,2022.2.5,,nem,,,,,,,,,,,,001,,vorke,,,,,269724,,71.42857142857143,269724,,,2023-09-26_11h34.44.401,3_dim_sg.PNG,,1,MacIntel,,,,,,vorkenem,,,,
﻿,,generalizability,,,n,,,,baldan,,,2023-09-26_11h35.07.023,,generalizability,,,,,,,,,,"['0.35', '0.35']",,,,,,,,,,,,,,stems_all/3_2.PNG,,14,,7,,,0,,,,,,,,,1.5330000000003565,,,,,,,,,,,,,,7,,,,,,,,,,,,001,,,,1,,,,,,,,,,,2022.2.5,,dan,,,,,,,,,,,,001,,bal,,,,,269724,,71.42857142857143,269724,,,2023-09-26_11h34.44.401,3_2.PNG,,1,MacIntel,,,,,,baldan,,,,
﻿,,generalizability,,,n,,,,koradan,,,2023-09-26_11h35.07.023,,generalizability,,,,,,,,,,"['0.35', '0.35']",,,,,,,,,,,,,,stems_all/12_2.PNG,,23,,8,,,0,,,,,,,,,2.2489999999997963,,,,,,,,,,,,,,8,,,,,,,,,,,,001,,,,3,,,,,,,,,,,2022.2.5,,dan,,,,,,,,,,,,001,,kora,,,,,269724,,71.42857142857143,269724,,,2023-09-26_11h34.44.401,12_2.PNG,,1,MacIntel,,,,,,koradan,,,,
﻿,,generalizability,,,n,,,,berkodan,,,2023-09-26_11h35.07.023,,generalizability,,,,,,,,,,"['0.35', '0.35']",,,,,,,,,,,,,,stems_all/6_2.PNG,,17,,9,,,0,,,,,,,,,2.145999999999731,,,,,,,,,,,,,,9,,,,,,,,,,,,001,,,,2,,,,,,,,,,,2022.2.5,,dan,,,,,,,,,,,,001,,berko,,,,,269724,,71.42857142857143,269724,,,2023-09-26_11h34.44.401,6_2.PNG,,1,MacIntel,,,,,,berkodan,,,,
﻿,,generalizability,,,m,,,,kudomnem,,,2023-09-26_11h35.07.023,,generalizability,,,,,,,,,,"['0.20', '0.20']",,,,,,,,,,,,,,stems_all/2_dim_sg.PNG,,7,,10,,,0,,,,,,,,,2.507999999999811,,,,,,,,,,,,,,10,,,,,,,,,,,,001,,,,8,,,,,,,,,,,2022.2.5,,nem,,,,,,,,,,,,001,,kudom,,,,,269724,,71.42857142857143,269724,,,2023-09-26_11h34.44.401,2_dim_sg.PNG,,1,MacIntel,,,,,,kudomnem,,,,
﻿,,generalizability,,,m,,,,baninem,,,2023-09-26_11h35.07.023,,generalizability,,,,,,,,,,"['0.20', '0.20']",,,,,,,,,,,,,,stems_all/2_dim_sg.PNG,,5,,11,,,0,,,,,,,,,1.719000000000051,,,,,,,,,,,,,,11,,,,,,,,,,,,001,,,,6,,,,,,,,,,,2022.2.5,,nem,,,,,,,,,,,,001,,bani,,,,,269724,,71.42857142857143,269724,,,2023-09-26_11h34.44.401,2_dim_sg.PNG,,1,MacIntel,,,,,,baninem,,,,
﻿,,generalizability,,,n,,,,balshoon,,,2023-09-26_11h35.07.023,,generalizability,,,,,,,,,,"['0.20', '0.20']",,,,,,,,,,,,,,stems_all/1_dim_sg.PNG,,27,,12,,,0,,,,,,,,,1.8989999999998872,,,,,,,,,,,,,,12,,,,,,,,,,,,001,,,,1,,,,,,,,,,,2022.2.5,,shoon,,,,,,,,,,,,001,,bal,,,,,269724,,71.42857142857143,269724,,,2023-09-26_11h34.44.401,1_dim_sg.PNG,,1,MacIntel,,,,,,balshoon,,,,
﻿,,generalizability,,,m,,,,ostonem,,,2023-09-26_11h35.07.023,,generalizability,,,,,,,,,,"['0.20', '0.20']",,,,,,,,,,,,,,stems_all/3_dim_sg.PNG,,8,,13,,,0,,,,,,,,,1.7290000000002692,,,,,,,,,,,,,,13,,,,,,,,,,,,001,,,,9,,,,,,,,,,,2022.2.5,,nem,,,,,,,,,,,,001,,osto,,,,,269724,,71.42857142857143,269724,,,2023-09-26_11h34.44.401,3_dim_sg.PNG,,1,MacIntel,,,,,,ostonem,,,,
﻿,,generalizability,,,l,,,,korasil,,,2023-09-26_11h35.07.023,,generalizability,,,,,,,,,,"['0.35', '0.35']",,,,,,,,,,,,,,stems_all/3_2.PNG,,26,,14,,,0,,,,,,,,,1.9750000000003638,,,,,,,,,,,,,,14,,,,,,,,,,,,001,,,,3,,,,,,,,,,,2022.2.5,,sil,,,,,,,,,,,,001,,kora,,,,,269724,,71.42857142857143,269724,,,2023-09-26_11h34.44.401,3_2.PNG,,1,MacIntel,,,,,,korasil,,,,
﻿,,generalizability,,,n,,,,berkodan,,,2023-09-26_11h35.07.023,,generalizability,,,,,,,,,,"['0.35', '0.35']",,,,,,,,,,,,,,stems_all/8_2.PNG,,19,,15,,,0,,,,,,,,,2.199000000000069,,,,,,,,,,,,,,15,,,,,,,,,,,,001,,,,2,,,,,,,,,,,2022.2.5,,dan,,,,,,,,,,,,001,,berko,,,,,269724,,71.42857142857143,269724,,,2023-09-26_11h34.44.401,8_2.PNG,,1,MacIntel,,,,,,berkodan,,,,
﻿,,generalizability,,,m,,,,berkonem,,,2023-09-26_11h35.07.023,,generalizability,,,,,,,,,,"['0.20', '0.20']",,,,,,,,,,,,,,stems_all/1_dim_sg.PNG,,1,,16,,,0,,,,,,,,,2.4699999999998,,,,,,,,,,,,,,16,,,,,,,,,,,,001,,,,2,,,,,,,,,,,2022.2.5,,nem,,,,,,,,,,,,001,,berko,,,,,269724,,71.42857142857143,269724,,,2023-09-26_11h34.44.401,1_dim_sg.PNG,,1,MacIntel,,,,,,berkonem,,,,
﻿,,generalizability,,,n,,,,baldan,,,2023-09-26_11h35.07.023,,generalizability,,,,,,,,,,"['0.35', '0.35']",,,,,,,,,,,,,,stems_all/2_2.PNG,,13,,17,,,0,,,,,,,,,1.6899999999995998,,,,,,,,,,,,,,17,,,,,,,,,,,,001,,,,1,,,,,,,,,,,2022.2.5,,dan,,,,,,,,,,,,001,,bal,,,,,269724,,71.42857142857143,269724,,,2023-09-26_11h34.44.401,2_2.PNG,,1,MacIntel,,,,,,baldan,,,,
﻿,,generalizability,,,n,,,,koradan,,,2023-09-26_11h35.07.023,,generalizability,,,,,,,,,,"['0.35', '0.35']",,,,,,,,,,,,,,stems_all/9_2.PNG,,20,,18,,,0,,,,,,,,,2.055000000000291,,,,,,,,,,,,,,18,,,,,,,,,,,,001,,,,3,,,,,,,,,,,2022.2.5,,dan,,,,,,,,,,,,001,,kora,,,,,269724,,71.42857142857143,269724,,,2023-09-26_11h34.44.401,9_2.PNG,,1,MacIntel,,,,,,koradan,,,,
﻿,,generalizability,,,n,,,,koradan,,,2023-09-26_11h35.07.023,,generalizability,,,,,,,,,,"['0.35', '0.35']",,,,,,,,,,,,,,stems_all/11_2.PNG,,22,,19,,,0,,,,,,,,,4.0340000000001055,,,,,,,,,,,,,,19,,,,,,,,,,,,001,,,,3,,,,,,,,,,,2022.2.5,,dan,,,,,,,,,,,,001,,kora,,,,,269724,,71.42857142857143,269724,,,2023-09-26_11h34.44.401,11_2.PNG,,1,MacIntel,,,,,,koradan,,,,
﻿,,generalizability,,,n,,,,berkodan,,,2023-09-26_11h35.07.023,,generalizability,,,,,,,,,,"['0.35', '0.35']",,,,,,,,,,,,,,stems_all/5_2.PNG,,16,,20,,,0,,,,,,,,,2.056999999999789,,,,,,,,,,,,,,20,,,,,,,,,,,,001,,,,2,,,,,,,,,,,2022.2.5,,dan,,,,,,,,,,,,001,,berko,,,,,269724,,71.42857142857143,269724,,,2023-09-26_11h34.44.401,5_2.PNG,,1,MacIntel,,,,,,berkodan,,,,
﻿,,generalizability,,,n,,,,berkoshoon,,,2023-09-26_11h35.07.023,,generalizability,,,,,,,,,,"['0.20', '0.20']",,,,,,,,,,,,,,stems_all/2_dim_sg.PNG,,28,,21,,,0,,,,,,,,,2.599999999999909,,,,,,,,,,,,,,21,,,,,,,,,,,,001,,,,2,,,,,,,,,,,2022.2.5,,shoon,,,,,,,,,,,,001,,berko,,,,,269724,,71.42857142857143,269724,,,2023-09-26_11h34.44.401,2_dim_sg.PNG,,1,MacIntel,,,,,,berkoshoon,,,,
﻿,,generalizability,,,m,,,,pipanem,,,2023-09-26_11h35.07.023,,generalizability,,,,,,,,,,"['0.20', '0.20']",,,,,,,,,,,,,,stems_all/2_dim_sg.PNG,,4,,22,,,0,,,,,,,,,2.606999999999971,,,,,,,,,,,,,,22,,,,,,,,,,,,001,,,,5,,,,,,,,,,,2022.2.5,,nem,,,,,,,,,,,,001,,pipa,,,,,269724,,71.42857142857143,269724,,,2023-09-26_11h34.44.401,2_dim_sg.PNG,,1,MacIntel,,,,,,pipanem,,,,
﻿,,generalizability,,,m,,,,koranem,,,2023-09-26_11h35.07.023,,generalizability,,,,,,,,,,"['0.20', '0.20']",,,,,,,,,,,,,,stems_all/1_dim_sg.PNG,,2,,23,,,0,,,,,,,,,1.9469999999996617,,,,,,,,,,,,,,23,,,,,,,,,,,,001,,,,3,,,,,,,,,,,2022.2.5,,nem,,,,,,,,,,,,001,,kora,,,,,269724,,71.42857142857143,269724,,,2023-09-26_11h34.44.401,1_dim_sg.PNG,,1,MacIntel,,,,,,koranem,,,,
﻿,,generalizability,,,l,,,,berkosil,,,2023-09-26_11h35.07.023,,generalizability,,,,,,,,,,"['0.35', '0.35']",,,,,,,,,,,,,,stems_all/2_2.PNG,,25,,24,,,0,,,,,,,,,2.306999999999789,,,,,,,,,,,,,,24,,,,,,,,,,,,001,,,,2,,,,,,,,,,,2022.2.5,,sil,,,,,,,,,,,,001,,berko,,,,,269724,,71.42857142857143,269724,,,2023-09-26_11h34.44.401,2_2.PNG,,1,MacIntel,,,,,,berkosil,,,,
﻿,,generalizability,,,m,,,,balnem,,,2023-09-26_11h35.07.023,,generalizability,,,,,,,,,,"['0.20', '0.20']",,,,,,,,,,,,,,stems_all/1_dim_sg.PNG,,0,,25,,,0,,,,,,,,,1.7339999999999236,,,,,,,,,,,,,,25,,,,,,,,,,,,001,,,,1,,,,,,,,,,,2022.2.5,,nem,,,,,,,,,,,,001,,bal,,,,,269724,,71.42857142857143,269724,,,2023-09-26_11h34.44.401,1_dim_sg.PNG,,1,MacIntel,,,,,,balnem,,,,
﻿,,generalizability,,,n,,,,korashoon,,,2023-09-26_11h35.07.023,,generalizability,,,,,,,,,,"['0.20', '0.20']",,,,,,,,,,,,,,stems_all/3_dim_sg.PNG,,29,,26,,,0,,,,,,,,,2.369000000000142,,,,,,,,,,,,,,26,,,,,,,,,,,,001,,,,3,,,,,,,,,,,2022.2.5,,shoon,,,,,,,,,,,,001,,kora,,,,,269724,,71.42857142857143,269724,,,2023-09-26_11h34.44.401,3_dim_sg.PNG,,1,MacIntel,,,,,,korashoon,,,,
﻿,,generalizability,,,,,,,,,,2023-09-26_11h35.07.023,,generalizability,,,,,,,,,,"['0.20', '0.20']",,,,,,,,,,,,,,stems_all/2_dim_sg.PNG,,6,,27,,,0,,,,,,,,,,,,,,,,,,,,,,,27,,,,,,,,,,,,001,,,,7,,,,,,,,,,,2022.2.5,,nem,,,,,,,,,,,,001,,chool,,,,,269724,,71.42857142857143,269724,,,2023-09-26_11h34.44.401,2_dim_sg.PNG,,1,MacIntel,,,,,,choolnem,,,,
﻿,,generalizability,,,m,,,,meronem,,,2023-09-26_11h35.07.023,,generalizability,,,,,,,,,,"['0.20', '0.20']",,,,,,,,,,,,,,stems_all/3_dim_sg.PNG,,11,,28,,,0,,,,,,,,,3.324000000000069,,,,,,,,,,,,,,28,,,,,,,,,,,,001,,,,12,,,,,,,,,,,2022.2.5,,nem,,,,,,,,,,,,001,,mero,,,,,269724,,71.42857142857143,269724,,,2023-09-26_11h34.44.401,3_dim_sg.PNG,,1,MacIntel,,,,,,meronem,,,,
﻿,,generalizability,,,n,,,,berkodan,,,2023-09-26_11h35.07.023,,generalizability,,,,,,,,,,"['0.35', '0.35']",,,,,,,,,,,,,,stems_all/7_2.PNG,,18,,29,,,0,,,,,,,,,1.7619999999997162,,,,,,,,,,,,,,29,,,,,,,,,,,,001,,,,2,,,,,,,,,,,2022.2.5,,dan,,,,,,,,,,,,001,,berko,,,,,269724,,71.42857142857143,269724,,,2023-09-26_11h34.44.401,7_2.PNG,,1,MacIntel,,,,,,berkodan,,,,
﻿,,generalizability,,,m,,,,choolnem,,,2023-09-26_11h35.07.023,,generalizability,,,,,,,,,,"['0.20', '0.20']",,,,,,,,,,,,,,stems_all/2_dim_sg.PNG,,6,,30,,,1,,,,,,,,,2.143000000000029,,,,,,,,,,,,,,0,,,,,,,,,,,,001,,,,7,,,,,,,,,,,2022.2.5,,nem,,,,,,,,,,,,001,,chool,,,,,269724,,71.42857142857143,269724,,,2023-09-26_11h34.44.401,2_dim_sg.PNG,,1,MacIntel,,,,,,choolnem,,,,
﻿,,generalizability,,,l,,,,berkosil,,,2023-09-26_11h35.07.023,,generalizability,,,,,,,,,,"['0.35', '0.35']",,,,,,,,,,,,,,stems_all/2_2.PNG,,25,,31,,,1,,,,,,,,,1.7910000000001673,,,,,,,,,,,,,,1,,,,,,,,,,,,001,,,,2,,,,,,,,,,,2022.2.5,,sil,,,,,,,,,,,,001,,berko,,,,,269724,,71.42857142857143,269724,,,2023-09-26_11h34.44.401,2_2.PNG,,1,MacIntel,,,,,,berkosil,,,,
﻿,,generalizability,,,n,,,,korashoon,,,2023-09-26_11h35.07.023,,generalizability,,,,,,,,,,"['0.20', '0.20']",,,,,,,,,,,,,,stems_all/3_dim_sg.PNG,,29,,32,,,1,,,,,,,,,1.8589999999999236,,,,,,,,,,,,,,2,,,,,,,,,,,,001,,,,3,,,,,,,,,,,2022.2.5,,shoon,,,,,,,,,,,,001,,kora,,,,,269724,,71.42857142857143,269724,,,2023-09-26_11h34.44.401,3_dim_sg.PNG,,1,MacIntel,,,,,,korashoon,,,,
﻿,,generalizability,,,m,,,,vorkenem,,,2023-09-26_11h35.07.023,,generalizability,,,,,,,,,,"['0.20', '0.20']",,,,,,,,,,,,,,stems_all/3_dim_sg.PNG,,9,,33,,,1,,,,,,,,,1.763999999999669,,,,,,,,,,,,,,3,,,,,,,,,,,,001,,,,10,,,,,,,,,,,2022.2.5,,nem,,,,,,,,,,,,001,,vorke,,,,,269724,,71.42857142857143,269724,,,2023-09-26_11h34.44.401,3_dim_sg.PNG,,1,MacIntel,,,,,,vorkenem,,,,
﻿,,generalizability,,,,,,,,,,2023-09-26_11h35.07.023,,generalizability,,,,,,,,,,"['0.20', '0.20']",,,,,,,,,,,,,,stems_all/2_dim_sg.PNG,,5,,34,,,1,,,,,,,,,,,,,,,,,,,,,,,4,,,,,,,,,,,,001,,,,6,,,,,,,,,,,2022.2.5,,nem,,,,,,,,,,,,001,,bani,,,,,269724,,71.42857142857143,269724,,,2023-09-26_11h34.44.401,2_dim_sg.PNG,,1,MacIntel,,,,,,baninem,,,,
﻿,,generalizability,,,n,,,,berkodan,,,2023-09-26_11h35.07.023,,generalizability,,,,,,,,,,"['0.35', '0.35']",,,,,,,,,,,,,,stems_all/5_2.PNG,,16,,35,,,1,,,,,,,,,2.0140000000001237,,,,,,,,,,,,,,5,,,,,,,,,,,,001,,,,2,,,,,,,,,,,2022.2.5,,dan,,,,,,,,,,,,001,,berko,,,,,269724,,71.42857142857143,269724,,,2023-09-26_11h34.44.401,5_2.PNG,,1,MacIntel,,,,,,berkodan,,,,
﻿,,generalizability,,,m,,,,kudomnem,,,2023-09-26_11h35.07.023,,generalizability,,,,,,,,,,"['0.20', '0.20']",,,,,,,,,,,,,,stems_all/2_dim_sg.PNG,,7,,36,,,1,,,,,,,,,3.367000000000189,,,,,,,,,,,,,,6,,,,,,,,,,,,001,,,,8,,,,,,,,,,,2022.2.5,,nem,,,,,,,,,,,,001,,kudom,,,,,269724,,71.42857142857143,269724,,,2023-09-26_11h34.44.401,2_dim_sg.PNG,,1,MacIntel,,,,,,kudomnem,,,,
﻿,,generalizability,,,n,,,,koradan,,,2023-09-26_11h35.07.023,,generalizability,,,,,,,,,,"['0.35', '0.35']",,,,,,,,,,,,,,stems_all/11_2.PNG,,22,,37,,,1,,,,,,,,,1.6839999999997417,,,,,,,,,,,,,,7,,,,,,,,,,,,001,,,,3,,,,,,,,,,,2022.2.5,,dan,,,,,,,,,,,,001,,kora,,,,,269724,,71.42857142857143,269724,,,2023-09-26_11h34.44.401,11_2.PNG,,1,MacIntel,,,,,,koradan,,,,
﻿,,generalizability,,,n,,,,berkoshoon,,,2023-09-26_11h35.07.023,,generalizability,,,,,,,,,,"['0.20', '0.20']",,,,,,,,,,,,,,stems_all/2_dim_sg.PNG,,28,,38,,,1,,,,,,,,,2.5330000000003565,,,,,,,,,,,,,,8,,,,,,,,,,,,001,,,,2,,,,,,,,,,,2022.2.5,,shoon,,,,,,,,,,,,001,,berko,,,,,269724,,71.42857142857143,269724,,,2023-09-26_11h34.44.401,2_dim_sg.PNG,,1,MacIntel,,,,,,berkoshoon,,,,
﻿,,generalizability,,,m,,,,ostonem,,,2023-09-26_11h35.07.023,,generalizability,,,,,,,,,,"['0.20', '0.20']",,,,,,,,,,,,,,stems_all/3_dim_sg.PNG,,8,,39,,,1,,,,,,,,,1.5579999999999927,,,,,,,,,,,,,,9,,,,,,,,,,,,001,,,,9,,,,,,,,,,,2022.2.5,,nem,,,,,,,,,,,,001,,osto,,,,,269724,,71.42857142857143,269724,,,2023-09-26_11h34.44.401,3_dim_sg.PNG,,1,MacIntel,,,,,,ostonem,,,,
﻿,,generalizability,,,n,,,,baldan,,,2023-09-26_11h35.07.023,,generalizability,,,,,,,,,,"['0.35', '0.35']",,,,,,,,,,,,,,stems_all/3_2.PNG,,14,,40,,,1,,,,,,,,,1.375,,,,,,,,,,,,,,10,,,,,,,,,,,,001,,,,1,,,,,,,,,,,2022.2.5,,dan,,,,,,,,,,,,001,,bal,,,,,269724,,71.42857142857143,269724,,,2023-09-26_11h34.44.401,3_2.PNG,,1,MacIntel,,,,,,baldan,,,,
﻿,,generalizability,,,n,,,,berkodan,,,2023-09-26_11h35.07.023,,generalizability,,,,,,,,,,"['0.35', '0.35']",,,,,,,,,,,,,,stems_all/7_2.PNG,,18,,41,,,1,,,,,,,,,1.6599999999998545,,,,,,,,,,,,,,11,,,,,,,,,,,,001,,,,2,,,,,,,,,,,2022.2.5,,dan,,,,,,,,,,,,001,,berko,,,,,269724,,71.42857142857143,269724,,,2023-09-26_11h34.44.401,7_2.PNG,,1,MacIntel,,,,,,berkodan,,,,
﻿,,generalizability,,,n,,,,baldan,,,2023-09-26_11h35.07.023,,generalizability,,,,,,,,,,"['0.35', '0.35']",,,,,,,,,,,,,,stems_all/1_2.PNG,,12,,42,,,1,,,,,,,,,1.8820000000000618,,,,,,,,,,,,,,12,,,,,,,,,,,,001,,,,1,,,,,,,,,,,2022.2.5,,dan,,,,,,,,,,,,001,,bal,,,,,269724,,71.42857142857143,269724,,,2023-09-26_11h34.44.401,1_2.PNG,,1,MacIntel,,,,,,baldan,,,,
﻿,,generalizability,,,n,,,,koradan,,,2023-09-26_11h35.07.023,,generalizability,,,,,,,,,,"['0.35', '0.35']",,,,,,,,,,,,,,stems_all/10_2.PNG,,21,,43,,,1,,,,,,,,,1.650000000000091,,,,,,,,,,,,,,13,,,,,,,,,,,,001,,,,3,,,,,,,,,,,2022.2.5,,dan,,,,,,,,,,,,001,,kora,,,,,269724,,71.42857142857143,269724,,,2023-09-26_11h34.44.401,10_2.PNG,,1,MacIntel,,,,,,koradan,,,,
﻿,,generalizability,,,l,,,,balsil,,,2023-09-26_11h35.07.023,,generalizability,,,,,,,,,,"['0.35', '0.35']",,,,,,,,,,,,,,stems_all/1_2.PNG,,24,,44,,,1,,,,,,,,,1.41399999999976,,,,,,,,,,,,,,14,,,,,,,,,,,,001,,,,1,,,,,,,,,,,2022.2.5,,sil,,,,,,,,,,,,001,,bal,,,,,269724,,71.42857142857143,269724,,,2023-09-26_11h34.44.401,1_2.PNG,,1,MacIntel,,,,,,balsil,,,,
﻿,,generalizability,,,n,,,,berkodan,,,2023-09-26_11h35.07.023,,generalizability,,,,,,,,,,"['0.35', '0.35']",,,,,,,,,,,,,,stems_all/8_2.PNG,,19,,45,,,1,,,,,,,,,1.5520000000001346,,,,,,,,,,,,,,15,,,,,,,,,,,,001,,,,2,,,,,,,,,,,2022.2.5,,dan,,,,,,,,,,,,001,,berko,,,,,269724,,71.42857142857143,269724,,,2023-09-26_11h34.44.401,8_2.PNG,,1,MacIntel,,,,,,berkodan,,,,
﻿,,generalizability,,,m,,,,binnem,,,2023-09-26_11h35.07.023,,generalizability,,,,,,,,,,"['0.20', '0.20']",,,,,,,,,,,,,,stems_all/3_dim_sg.PNG,,10,,46,,,1,,,,,,,,,1.4940000000001419,,,,,,,,,,,,,,16,,,,,,,,,,,,001,,,,11,,,,,,,,,,,2022.2.5,,nem,,,,,,,,,,,,001,,bin,,,,,269724,,71.42857142857143,269724,,,2023-09-26_11h34.44.401,3_dim_sg.PNG,,1,MacIntel,,,,,,binnem,,,,
﻿,,generalizability,,,n,,,,koradan,,,2023-09-26_11h35.07.023,,generalizability,,,,,,,,,,"['0.35', '0.35']",,,,,,,,,,,,,,stems_all/12_2.PNG,,23,,47,,,1,,,,,,,,,1.6839999999997417,,,,,,,,,,,,,,17,,,,,,,,,,,,001,,,,3,,,,,,,,,,,2022.2.5,,dan,,,,,,,,,,,,001,,kora,,,,,269724,,71.42857142857143,269724,,,2023-09-26_11h34.44.401,12_2.PNG,,1,MacIntel,,,,,,koradan,,,,
﻿,,generalizability,,,m,,,,berkonem,,,2023-09-26_11h35.07.023,,generalizability,,,,,,,,,,"['0.20', '0.20']",,,,,,,,,,,,,,stems_all/1_dim_sg.PNG,,1,,48,,,1,,,,,,,,,1.7820000000001528,,,,,,,,,,,,,,18,,,,,,,,,,,,001,,,,2,,,,,,,,,,,2022.2.5,,nem,,,,,,,,,,,,001,,berko,,,,,269724,,71.42857142857143,269724,,,2023-09-26_11h34.44.401,1_dim_sg.PNG,,1,MacIntel,,,,,,berkonem,,,,
﻿,,generalizability,,,m,,,,pipanem,,,2023-09-26_11h35.07.023,,generalizability,,,,,,,,,,"['0.20', '0.20']",,,,,,,,,,,,,,stems_all/2_dim_sg.PNG,,4,,49,,,1,,,,,,,,,1.6289999999999054,,,,,,,,,,,,,,19,,,,,,,,,,,,001,,,,5,,,,,,,,,,,2022.2.5,,nem,,,,,,,,,,,,001,,pipa,,,,,269724,,71.42857142857143,269724,,,2023-09-26_11h34.44.401,2_dim_sg.PNG,,1,MacIntel,,,,,,pipanem,,,,
﻿,,generalizability,,,n,,,,beldan2lndkjbaldan,,,2023-09-26_11h35.07.023,,generalizability,,,,,,,,,,"['0.35', '0.35']",,,,,,,,,,,,,,stems_all/2_2.PNG,,13,,50,,,1,,,,,,,,,7.175999999999931,,,,,,,,,,,,,,20,,,,,,,,,,,,001,,,,1,,,,,,,,,,,2022.2.5,,dan,,,,,,,,,,,,001,,bal,,,,,269724,,71.42857142857143,269724,,,2023-09-26_11h34.44.401,2_2.PNG,,1,MacIntel,,,,,,baldan,,,,
﻿,,generalizability,,,n,,,,berkodan,,,2023-09-26_11h35.07.023,,generalizability,,,,,,,,,,"['0.35', '0.35']",,,,,,,,,,,,,,stems_all/6_2.PNG,,17,,51,,,1,,,,,,,,,1.7729999999996835,,,,,,,,,,,,,,21,,,,,,,,,,,,001,,,,2,,,,,,,,,,,2022.2.5,,dan,,,,,,,,,,,,001,,berko,,,,,269724,,71.42857142857143,269724,,,2023-09-26_11h34.44.401,6_2.PNG,,1,MacIntel,,,,,,berkodan,,,,
﻿,,generalizability,,,n,,,,koradan,,,2023-09-26_11h35.07.023,,generalizability,,,,,,,,,,"['0.35', '0.35']",,,,,,,,,,,,,,stems_all/9_2.PNG,,20,,52,,,1,,,,,,,,,4.891000000000076,,,,,,,,,,,,,,22,,,,,,,,,,,,001,,,,3,,,,,,,,,,,2022.2.5,,dan,,,,,,,,,,,,001,,kora,,,,,269724,,71.42857142857143,269724,,,2023-09-26_11h34.44.401,9_2.PNG,,1,MacIntel,,,,,,koradan,,,,
﻿,,generalizability,,,l,,,,korasil,,,2023-09-26_11h35.07.023,,generalizability,,,,,,,,,,"['0.35', '0.35']",,,,,,,,,,,,,,stems_all/3_2.PNG,,26,,53,,,1,,,,,,,,,1.6489999999998872,,,,,,,,,,,,,,23,,,,,,,,,,,,001,,,,3,,,,,,,,,,,2022.2.5,,sil,,,,,,,,,,,,001,,kora,,,,,269724,,71.42857142857143,269724,,,2023-09-26_11h34.44.401,3_2.PNG,,1,MacIntel,,,,,,korasil,,,,
﻿,,generalizability,,,n,,,,baldan,,,2023-09-26_11h35.07.023,,generalizability,,,,,,,,,,"['0.35', '0.35']",,,,,,,,,,,,,,stems_all/4_2.PNG,,15,,54,,,1,,,,,,,,,1.469000000000051,,,,,,,,,,,,,,24,,,,,,,,,,,,001,,,,1,,,,,,,,,,,2022.2.5,,dan,,,,,,,,,,,,001,,bal,,,,,269724,,71.42857142857143,269724,,,2023-09-26_11h34.44.401,4_2.PNG,,1,MacIntel,,,,,,baldan,,,,
﻿,,generalizability,,,m,,,,meronem,,,2023-09-26_11h35.07.023,,generalizability,,,,,,,,,,"['0.20', '0.20']",,,,,,,,,,,,,,stems_all/3_dim_sg.PNG,,11,,55,,,1,,,,,,,,,1.4780000000000655,,,,,,,,,,,,,,25,,,,,,,,,,,,001,,,,12,,,,,,,,,,,2022.2.5,,nem,,,,,,,,,,,,001,,mero,,,,,269724,,71.42857142857143,269724,,,2023-09-26_11h34.44.401,3_dim_sg.PNG,,1,MacIntel,,,,,,meronem,,,,
﻿,,generalizability,,,n,,,,balshoon,,,2023-09-26_11h35.07.023,,generalizability,,,,,,,,,,"['0.20', '0.20']",,,,,,,,,,,,,,stems_all/1_dim_sg.PNG,,27,,56,,,1,,,,,,,,,1.6329999999998108,,,,,,,,,,,,,,26,,,,,,,,,,,,001,,,,1,,,,,,,,,,,2022.2.5,,shoon,,,,,,,,,,,,001,,bal,,,,,269724,,71.42857142857143,269724,,,2023-09-26_11h34.44.401,1_dim_sg.PNG,,1,MacIntel,,,,,,balshoon,,,,
﻿,,generalizability,,,m,,,,nakonem,,,2023-09-26_11h35.07.023,,generalizability,,,,,,,,,,"['0.20', '0.20']",,,,,,,,,,,,,,stems_all/1_dim_sg.PNG,,3,,57,,,1,,,,,,,,,1.6410000000000764,,,,,,,,,,,,,,27,,,,,,,,,,,,001,,,,4,,,,,,,,,,,2022.2.5,,nem,,,,,,,,,,,,001,,nako,,,,,269724,,71.42857142857143,269724,,,2023-09-26_11h34.44.401,1_dim_sg.PNG,,1,MacIntel,,,,,,nakonem,,,,
﻿,,generalizability,,,m,,,,koranem,,,2023-09-26_11h35.07.023,,generalizability,,,,,,,,,,"['0.20', '0.20']",,,,,,,,,,,,,,stems_all/1_dim_sg.PNG,,2,,58,,,1,,,,,,,,,1.6529999999997926,,,,,,,,,,,,,,28,,,,,,,,,,,,001,,,,3,,,,,,,,,,,2022.2.5,,nem,,,,,,,,,,,,001,,kora,,,,,269724,,71.42857142857143,269724,,,2023-09-26_11h34.44.401,1_dim_sg.PNG,,1,MacIntel,,,,,,koranem,,,,
﻿,,generalizability,,,m,,,,balnem,,,2023-09-26_11h35.07.023,,generalizability,,,,,,,,,,"['0.20', '0.20']",,,,,,,,,,,,,,stems_all/1_dim_sg.PNG,,0,,59,,,1,,,,,,,,,1.3150000000000546,,,,,,,,,,,,,,29,,,,,,,,,,,,001,,,,1,,,,,,,,,,,2022.2.5,,nem,,,,,,,,,,,,001,,bal,,,,,269724,,71.42857142857143,269724,,,2023-09-26_11h34.44.401,1_dim_sg.PNG,,1,MacIntel,,,,,,balnem,,,,
﻿,,generalizability,,,n,,,,koradan,,,2023-09-26_11h35.07.023,,generalizability,,,,,,,,,,"['0.35', '0.35']",,,,,,,,,,,,,,stems_all/10_2.PNG,,21,,60,,,2,,,,,,,,,1.7269999999998618,,,,,,,,,,,,,,0,,,,,,,,,,,,001,,,,3,,,,,,,,,,,2022.2.5,,dan,,,,,,,,,,,,001,,kora,,,,,269724,,71.42857142857143,269724,,,2023-09-26_11h34.44.401,10_2.PNG,,1,MacIntel,,,,,,koradan,,,,
﻿,,generalizability,,,n,,,,baldan,,,2023-09-26_11h35.07.023,,generalizability,,,,,,,,,,"['0.35', '0.35']",,,,,,,,,,,,,,stems_all/2_2.PNG,,13,,61,,,2,,,,,,,,,1.4380000000001019,,,,,,,,,,,,,,1,,,,,,,,,,,,001,,,,1,,,,,,,,,,,2022.2.5,,dan,,,,,,,,,,,,001,,bal,,,,,269724,,71.42857142857143,269724,,,2023-09-26_11h34.44.401,2_2.PNG,,1,MacIntel,,,,,,baldan,,,,
﻿,,generalizability,,,m,,,,binnem,,,2023-09-26_11h35.07.023,,generalizability,,,,,,,,,,"['0.20', '0.20']",,,,,,,,,,,,,,stems_all/3_dim_sg.PNG,,10,,62,,,2,,,,,,,,,1.6320000000000618,,,,,,,,,,,,,,2,,,,,,,,,,,,001,,,,11,,,,,,,,,,,2022.2.5,,nem,,,,,,,,,,,,001,,bin,,,,,269724,,71.42857142857143,269724,,,2023-09-26_11h34.44.401,3_dim_sg.PNG,,1,MacIntel,,,,,,binnem,,,,
﻿,,generalizability,,,n,,,,baldan,,,2023-09-26_11h35.07.023,,generalizability,,,,,,,,,,"['0.35', '0.35']",,,,,,,,,,,,,,stems_all/1_2.PNG,,12,,63,,,2,,,,,,,,,1.3489999999997053,,,,,,,,,,,,,,3,,,,,,,,,,,,001,,,,1,,,,,,,,,,,2022.2.5,,dan,,,,,,,,,,,,001,,bal,,,,,269724,,71.42857142857143,269724,,,2023-09-26_11h34.44.401,1_2.PNG,,1,MacIntel,,,,,,baldan,,,,
﻿,,generalizability,,,n,,,,koradan,,,2023-09-26_11h35.07.023,,generalizability,,,,,,,,,,"['0.35', '0.35']",,,,,,,,,,,,,,stems_all/11_2.PNG,,22,,64,,,2,,,,,,,,,1.7290000000002692,,,,,,,,,,,,,,4,,,,,,,,,,,,001,,,,3,,,,,,,,,,,2022.2.5,,dan,,,,,,,,,,,,001,,kora,,,,,269724,,71.42857142857143,269724,,,2023-09-26_11h34.44.401,11_2.PNG,,1,MacIntel,,,,,,koradan,,,,
﻿,,generalizability,,,n,,,,baldan,,,2023-09-26_11h35.07.023,,generalizability,,,,,,,,,,"['0.35', '0.35']",,,,,,,,,,,,,,stems_all/4_2.PNG,,15,,65,,,2,,,,,,,,,1.3350000000000364,,,,,,,,,,,,,,5,,,,,,,,,,,,001,,,,1,,,,,,,,,,,2022.2.5,,dan,,,,,,,,,,,,001,,bal,,,,,269724,,71.42857142857143,269724,,,2023-09-26_11h34.44.401,4_2.PNG,,1,MacIntel,,,,,,baldan,,,,
﻿,,generalizability,,,m,,,,baninem,,,2023-09-26_11h35.07.023,,generalizability,,,,,,,,,,"['0.20', '0.20']",,,,,,,,,,,,,,stems_all/2_dim_sg.PNG,,5,,66,,,2,,,,,,,,,1.598000000000411,,,,,,,,,,,,,,6,,,,,,,,,,,,001,,,,6,,,,,,,,,,,2022.2.5,,nem,,,,,,,,,,,,001,,bani,,,,,269724,,71.42857142857143,269724,,,2023-09-26_11h34.44.401,2_dim_sg.PNG,,1,MacIntel,,,,,,baninem,,,,
﻿,,generalizability,,,n,,,,berkodan,,,2023-09-26_11h35.07.023,,generalizability,,,,,,,,,,"['0.35', '0.35']",,,,,,,,,,,,,,stems_all/8_2.PNG,,19,,67,,,2,,,,,,,,,1.79300000000012,,,,,,,,,,,,,,7,,,,,,,,,,,,001,,,,2,,,,,,,,,,,2022.2.5,,dan,,,,,,,,,,,,001,,berko,,,,,269724,,71.42857142857143,269724,,,2023-09-26_11h34.44.401,8_2.PNG,,1,MacIntel,,,,,,berkodan,,,,
﻿,,generalizability,,,n,,,,balshoon,,,2023-09-26_11h35.07.023,,generalizability,,,,,,,,,,"['0.20', '0.20']",,,,,,,,,,,,,,stems_all/1_dim_sg.PNG,,27,,68,,,2,,,,,,,,,1.9760000000001128,,,,,,,,,,,,,,8,,,,,,,,,,,,001,,,,1,,,,,,,,,,,2022.2.5,,shoon,,,,,,,,,,,,001,,bal,,,,,269724,,71.42857142857143,269724,,,2023-09-26_11h34.44.401,1_dim_sg.PNG,,1,MacIntel,,,,,,balshoon,,,,
﻿,,generalizability,,,n,,,,berkoshoon,,,2023-09-26_11h35.07.023,,generalizability,,,,,,,,,,"['0.20', '0.20']",,,,,,,,,,,,,,stems_all/2_dim_sg.PNG,,28,,69,,,2,,,,,,,,,2.0289999999999964,,,,,,,,,,,,,,9,,,,,,,,,,,,001,,,,2,,,,,,,,,,,2022.2.5,,shoon,,,,,,,,,,,,001,,berko,,,,,269724,,71.42857142857143,269724,,,2023-09-26_11h34.44.401,2_dim_sg.PNG,,1,MacIntel,,,,,,berkoshoon,,,,
﻿,,generalizability,,,m,,,,koranem,,,2023-09-26_11h35.07.023,,generalizability,,,,,,,,,,"['0.20', '0.20']",,,,,,,,,,,,,,stems_all/1_dim_sg.PNG,,2,,70,,,2,,,,,,,,,1.4369999999998981,,,,,,,,,,,,,,10,,,,,,,,,,,,001,,,,3,,,,,,,,,,,2022.2.5,,nem,,,,,,,,,,,,001,,kora,,,,,269724,,71.42857142857143,269724,,,2023-09-26_11h34.44.401,1_dim_sg.PNG,,1,MacIntel,,,,,,koranem,,,,
﻿,,generalizability,,,m,,,,choolnem,,,2023-09-26_11h35.07.023,,generalizability,,,,,,,,,,"['0.20', '0.20']",,,,,,,,,,,,,,stems_all/2_dim_sg.PNG,,6,,71,,,2,,,,,,,,,3.686999999999898,,,,,,,,,,,,,,11,,,,,,,,,,,,001,,,,7,,,,,,,,,,,2022.2.5,,nem,,,,,,,,,,,,001,,chool,,,,,269724,,71.42857142857143,269724,,,2023-09-26_11h34.44.401,2_dim_sg.PNG,,1,MacIntel,,,,,,choolnem,,,,
﻿,,generalizability,,,,,,,,,,2023-09-26_11h35.07.023,,generalizability,,,,,,,,,,"['0.20', '0.20']",,,,,,,,,,,,,,stems_all/3_dim_sg.PNG,,9,,72,,,2,,,,,,,,,,,,,,,,,,,,,,,12,,,,,,,,,,,,001,,,,10,,,,,,,,,,,2022.2.5,,nem,,,,,,,,,,,,001,,vorke,,,,,269724,,71.42857142857143,269724,,,2023-09-26_11h34.44.401,3_dim_sg.PNG,,1,MacIntel,,,,,,vorkenem,,,,
﻿,,generalizability,,,m,,,,berkonem,,,2023-09-26_11h35.07.023,,generalizability,,,,,,,,,,"['0.20', '0.20']",,,,,,,,,,,,,,stems_all/1_dim_sg.PNG,,1,,73,,,2,,,,,,,,,1.7730000000001382,,,,,,,,,,,,,,13,,,,,,,,,,,,001,,,,2,,,,,,,,,,,2022.2.5,,nem,,,,,,,,,,,,001,,berko,,,,,269724,,71.42857142857143,269724,,,2023-09-26_11h34.44.401,1_dim_sg.PNG,,1,MacIntel,,,,,,berkonem,,,,
﻿,,generalizability,,,l,,,,korasil,,,2023-09-26_11h35.07.023,,generalizability,,,,,,,,,,"['0.35', '0.35']",,,,,,,,,,,,,,stems_all/3_2.PNG,,26,,74,,,2,,,,,,,,,1.6640000000002146,,,,,,,,,,,,,,14,,,,,,,,,,,,001,,,,3,,,,,,,,,,,2022.2.5,,sil,,,,,,,,,,,,001,,kora,,,,,269724,,71.42857142857143,269724,,,2023-09-26_11h34.44.401,3_2.PNG,,1,MacIntel,,,,,,korasil,,,,
﻿,,generalizability,,,n,,,,koradan,,,2023-09-26_11h35.07.023,,generalizability,,,,,,,,,,"['0.35', '0.35']",,,,,,,,,,,,,,stems_all/9_2.PNG,,20,,75,,,2,,,,,,,,,1.7460000000000946,,,,,,,,,,,,,,15,,,,,,,,,,,,001,,,,3,,,,,,,,,,,2022.2.5,,dan,,,,,,,,,,,,001,,kora,,,,,269724,,71.42857142857143,269724,,,2023-09-26_11h34.44.401,9_2.PNG,,1,MacIntel,,,,,,koradan,,,,
﻿,,generalizability,,,m,,,,kudomnem,,,2023-09-26_11h35.07.023,,generalizability,,,,,,,,,,"['0.20', '0.20']",,,,,,,,,,,,,,stems_all/2_dim_sg.PNG,,7,,76,,,2,,,,,,,,,3.8279999999999745,,,,,,,,,,,,,,16,,,,,,,,,,,,001,,,,8,,,,,,,,,,,2022.2.5,,nem,,,,,,,,,,,,001,,kudom,,,,,269724,,71.42857142857143,269724,,,2023-09-26_11h34.44.401,2_dim_sg.PNG,,1,MacIntel,,,,,,kudomnem,,,,
﻿,,generalizability,,,l,,,,balsil,,,2023-09-26_11h35.07.023,,generalizability,,,,,,,,,,"['0.35', '0.35']",,,,,,,,,,,,,,stems_all/1_2.PNG,,24,,77,,,2,,,,,,,,,1.344000000000051,,,,,,,,,,,,,,17,,,,,,,,,,,,001,,,,1,,,,,,,,,,,2022.2.5,,sil,,,,,,,,,,,,001,,bal,,,,,269724,,71.42857142857143,269724,,,2023-09-26_11h34.44.401,1_2.PNG,,1,MacIntel,,,,,,balsil,,,,
﻿,,generalizability,,,n,,,,baldan,,,2023-09-26_11h35.07.023,,generalizability,,,,,,,,,,"['0.35', '0.35']",,,,,,,,,,,,,,stems_all/3_2.PNG,,14,,78,,,2,,,,,,,,,1.2910000000001673,,,,,,,,,,,,,,18,,,,,,,,,,,,001,,,,1,,,,,,,,,,,2022.2.5,,dan,,,,,,,,,,,,001,,bal,,,,,269724,,71.42857142857143,269724,,,2023-09-26_11h34.44.401,3_2.PNG,,1,MacIntel,,,,,,baldan,,,,
﻿,,generalizability,,,m,,,,pipanem,,,2023-09-26_11h35.07.023,,generalizability,,,,,,,,,,"['0.20', '0.20']",,,,,,,,,,,,,,stems_all/2_dim_sg.PNG,,4,,79,,,2,,,,,,,,,1.5629999999996471,,,,,,,,,,,,,,19,,,,,,,,,,,,001,,,,5,,,,,,,,,,,2022.2.5,,nem,,,,,,,,,,,,001,,pipa,,,,,269724,,71.42857142857143,269724,,,2023-09-26_11h34.44.401,2_dim_sg.PNG,,1,MacIntel,,,,,,pipanem,,,,
﻿,,generalizability,,,m,,,,nakonem,,,2023-09-26_11h35.07.023,,generalizability,,,,,,,,,,"['0.20', '0.20']",,,,,,,,,,,,,,stems_all/1_dim_sg.PNG,,3,,80,,,2,,,,,,,,,1.7579999999998108,,,,,,,,,,,,,,20,,,,,,,,,,,,001,,,,4,,,,,,,,,,,2022.2.5,,nem,,,,,,,,,,,,001,,nako,,,,,269724,,71.42857142857143,269724,,,2023-09-26_11h34.44.401,1_dim_sg.PNG,,1,MacIntel,,,,,,nakonem,,,,
﻿,,generalizability,,,n,,,,koradan,,,2023-09-26_11h35.07.023,,generalizability,,,,,,,,,,"['0.35', '0.35']",,,,,,,,,,,,,,stems_all/12_2.PNG,,23,,81,,,2,,,,,,,,,1.7530000000001564,,,,,,,,,,,,,,21,,,,,,,,,,,,001,,,,3,,,,,,,,,,,2022.2.5,,dan,,,,,,,,,,,,001,,kora,,,,,269724,,71.42857142857143,269724,,,2023-09-26_11h34.44.401,12_2.PNG,,1,MacIntel,,,,,,koradan,,,,
﻿,,generalizability,,,n,,,,berkodan,,,2023-09-26_11h35.07.023,,generalizability,,,,,,,,,,"['0.35', '0.35']",,,,,,,,,,,,,,stems_all/6_2.PNG,,17,,82,,,2,,,,,,,,,1.7899999999999636,,,,,,,,,,,,,,22,,,,,,,,,,,,001,,,,2,,,,,,,,,,,2022.2.5,,dan,,,,,,,,,,,,001,,berko,,,,,269724,,71.42857142857143,269724,,,2023-09-26_11h34.44.401,6_2.PNG,,1,MacIntel,,,,,,berkodan,,,,
﻿,,generalizability,,,n,,,,berkodan,,,2023-09-26_11h35.07.023,,generalizability,,,,,,,,,,"['0.35', '0.35']",,,,,,,,,,,,,,stems_all/5_2.PNG,,16,,83,,,2,,,,,,,,,1.7289999999998145,,,,,,,,,,,,,,23,,,,,,,,,,,,001,,,,2,,,,,,,,,,,2022.2.5,,dan,,,,,,,,,,,,001,,berko,,,,,269724,,71.42857142857143,269724,,,2023-09-26_11h34.44.401,5_2.PNG,,1,MacIntel,,,,,,berkodan,,,,
﻿,,generalizability,,,n,,,,korashoon,,,2023-09-26_11h35.07.023,,generalizability,,,,,,,,,,"['0.20', '0.20']",,,,,,,,,,,,,,stems_all/3_dim_sg.PNG,,29,,84,,,2,,,,,,,,,1.7989999999999782,,,,,,,,,,,,,,24,,,,,,,,,,,,001,,,,3,,,,,,,,,,,2022.2.5,,shoon,,,,,,,,,,,,001,,kora,,,,,269724,,71.42857142857143,269724,,,2023-09-26_11h34.44.401,3_dim_sg.PNG,,1,MacIntel,,,,,,korashoon,,,,
﻿,,generalizability,,,m,,,,ostonem,,,2023-09-26_11h35.07.023,,generalizability,,,,,,,,,,"['0.20', '0.20']",,,,,,,,,,,,,,stems_all/3_dim_sg.PNG,,8,,85,,,2,,,,,,,,,1.5619999999998981,,,,,,,,,,,,,,25,,,,,,,,,,,,001,,,,9,,,,,,,,,,,2022.2.5,,nem,,,,,,,,,,,,001,,osto,,,,,269724,,71.42857142857143,269724,,,2023-09-26_11h34.44.401,3_dim_sg.PNG,,1,MacIntel,,,,,,ostonem,,,,
﻿,,generalizability,,,m,,,,balnem,,,2023-09-26_11h35.07.023,,generalizability,,,,,,,,,,"['0.20', '0.20']",,,,,,,,,,,,,,stems_all/1_dim_sg.PNG,,0,,86,,,2,,,,,,,,,1.393000000000029,,,,,,,,,,,,,,26,,,,,,,,,,,,001,,,,1,,,,,,,,,,,2022.2.5,,nem,,,,,,,,,,,,001,,bal,,,,,269724,,71.42857142857143,269724,,,2023-09-26_11h34.44.401,1_dim_sg.PNG,,1,MacIntel,,,,,,balnem,,,,
﻿,,generalizability,,,n,,,,berkodan,,,2023-09-26_11h35.07.023,,generalizability,,,,,,,,,,"['0.35', '0.35']",,,,,,,,,,,,,,stems_all/7_2.PNG,,18,,87,,,2,,,,,,,,,1.582999999999629,,,,,,,,,,,,,,27,,,,,,,,,,,,001,,,,2,,,,,,,,,,,2022.2.5,,dan,,,,,,,,,,,,001,,berko,,,,,269724,,71.42857142857143,269724,,,2023-09-26_11h34.44.401,7_2.PNG,,1,MacIntel,,,,,,berkodan,,,,
﻿,,generalizability,,,m,,,,meronem,,,2023-09-26_11h35.07.023,,generalizability,,,,,,,,,,"['0.20', '0.20']",,,,,,,,,,,,,,stems_all/3_dim_sg.PNG,,11,,88,,,2,,,,,,,,,1.8240000000000691,,,,,,,,,,,,,,28,,,,,,,,,,,,001,,,,12,,,,,,,,,,,2022.2.5,,nem,,,,,,,,,,,,001,,mero,,,,,269724,,71.42857142857143,269724,,,2023-09-26_11h34.44.401,3_dim_sg.PNG,,1,MacIntel,,,,,,meronem,,,,
﻿,,generalizability,,,l,,,,berkosil,,,2023-09-26_11h35.07.023,,generalizability,,,,,,,,,,"['0.35', '0.35']",,,,,,,,,,,,,,stems_all/2_2.PNG,,25,,89,,,2,,,,,,,,,2.0650000000000546,,,,,,,,,,,,,,29,,,,,,,,,,,,001,,,,2,,,,,,,,,,,2022.2.5,,sil,,,,,,,,,,,,001,,berko,,,,,269724,,71.42857142857143,269724,,,2023-09-26_11h34.44.401,2_2.PNG,,1,MacIntel,,,,,,berkosil,,,,
﻿,,generalizability,,,n,,,,koradan,,,2023-09-26_11h35.07.023,,generalizability,,,,,,,,,,"['0.35', '0.35']",,,,,,,,,,,,,,stems_all/11_2.PNG,,22,,90,,,3,,,,,,,,,2.3979999999996835,,,,,,,,,,,,,,0,,,,,,,,,,,,001,,,,3,,,,,,,,,,,2022.2.5,,dan,,,,,,,,,,,,001,,kora,,,,,269724,,71.42857142857143,269724,,,2023-09-26_11h34.44.401,11_2.PNG,,1,MacIntel,,,,,,koradan,,,,
﻿,,generalizability,,,n,,,,berkodan,,,2023-09-26_11h35.07.023,,generalizability,,,,,,,,,,"['0.35', '0.35']",,,,,,,,,,,,,,stems_all/6_2.PNG,,17,,91,,,3,,,,,,,,,1.7429999999999382,,,,,,,,,,,,,,1,,,,,,,,,,,,001,,,,2,,,,,,,,,,,2022.2.5,,dan,,,,,,,,,,,,001,,berko,,,,,269724,,71.42857142857143,269724,,,2023-09-26_11h34.44.401,6_2.PNG,,1,MacIntel,,,,,,berkodan,,,,
﻿,,generalizability,,,n,,,,baldan,,,2023-09-26_11h35.07.023,,generalizability,,,,,,,,,,"['0.35', '0.35']",,,,,,,,,,,,,,stems_all/1_2.PNG,,12,,92,,,3,,,,,,,,,1.3479999999999563,,,,,,,,,,,,,,2,,,,,,,,,,,,001,,,,1,,,,,,,,,,,2022.2.5,,dan,,,,,,,,,,,,001,,bal,,,,,269724,,71.42857142857143,269724,,,2023-09-26_11h34.44.401,1_2.PNG,,1,MacIntel,,,,,,baldan,,,,
﻿,,generalizability,,,n,,,,baldan,,,2023-09-26_11h35.07.023,,generalizability,,,,,,,,,,"['0.35', '0.35']",,,,,,,,,,,,,,stems_all/4_2.PNG,,15,,93,,,3,,,,,,,,,1.3719999999998436,,,,,,,,,,,,,,3,,,,,,,,,,,,001,,,,1,,,,,,,,,,,2022.2.5,,dan,,,,,,,,,,,,001,,bal,,,,,269724,,71.42857142857143,269724,,,2023-09-26_11h34.44.401,4_2.PNG,,1,MacIntel,,,,,,baldan,,,,
﻿,,generalizability,,,m,,,,balnem,,,2023-09-26_11h35.07.023,,generalizability,,,,,,,,,,"['0.20', '0.20']",,,,,,,,,,,,,,stems_all/1_dim_sg.PNG,,0,,94,,,3,,,,,,,,,1.2699999999999818,,,,,,,,,,,,,,4,,,,,,,,,,,,001,,,,1,,,,,,,,,,,2022.2.5,,nem,,,,,,,,,,,,001,,bal,,,,,269724,,71.42857142857143,269724,,,2023-09-26_11h34.44.401,1_dim_sg.PNG,,1,MacIntel,,,,,,balnem,,,,
﻿,,generalizability,,,l,,,,korasil,,,2023-09-26_11h35.07.023,,generalizability,,,,,,,,,,"['0.35', '0.35']",,,,,,,,,,,,,,stems_all/3_2.PNG,,26,,95,,,3,,,,,,,,,2.2850000000003092,,,,,,,,,,,,,,5,,,,,,,,,,,,001,,,,3,,,,,,,,,,,2022.2.5,,sil,,,,,,,,,,,,001,,kora,,,,,269724,,71.42857142857143,269724,,,2023-09-26_11h34.44.401,3_2.PNG,,1,MacIntel,,,,,,korasil,,,,
﻿,,generalizability,,,n,,,,koradan,,,2023-09-26_11h35.07.023,,generalizability,,,,,,,,,,"['0.35', '0.35']",,,,,,,,,,,,,,stems_all/12_2.PNG,,23,,96,,,3,,,,,,,,,1.8679999999999382,,,,,,,,,,,,,,6,,,,,,,,,,,,001,,,,3,,,,,,,,,,,2022.2.5,,dan,,,,,,,,,,,,001,,kora,,,,,269724,,71.42857142857143,269724,,,2023-09-26_11h34.44.401,12_2.PNG,,1,MacIntel,,,,,,koradan,,,,
﻿,,generalizability,,,m,,,,ostonem,,,2023-09-26_11h35.07.023,,generalizability,,,,,,,,,,"['0.20', '0.20']",,,,,,,,,,,,,,stems_all/3_dim_sg.PNG,,8,,97,,,3,,,,,,,,,1.418999999999869,,,,,,,,,,,,,,7,,,,,,,,,,,,001,,,,9,,,,,,,,,,,2022.2.5,,nem,,,,,,,,,,,,001,,osto,,,,,269724,,71.42857142857143,269724,,,2023-09-26_11h34.44.401,3_dim_sg.PNG,,1,MacIntel,,,,,,ostonem,,,,
﻿,,generalizability,,,l,,,,balsil,,,2023-09-26_11h35.07.023,,generalizability,,,,,,,,,,"['0.35', '0.35']",,,,,,,,,,,,,,stems_all/1_2.PNG,,24,,98,,,3,,,,,,,,,1.575999999999567,,,,,,,,,,,,,,8,,,,,,,,,,,,001,,,,1,,,,,,,,,,,2022.2.5,,sil,,,,,,,,,,,,001,,bal,,,,,269724,,71.42857142857143,269724,,,2023-09-26_11h34.44.401,1_2.PNG,,1,MacIntel,,,,,,balsil,,,,
﻿,,generalizability,,,n,,,,baldan,,,2023-09-26_11h35.07.023,,generalizability,,,,,,,,,,"['0.35', '0.35']",,,,,,,,,,,,,,stems_all/3_2.PNG,,14,,99,,,3,,,,,,,,,1.456000000000131,,,,,,,,,,,,,,9,,,,,,,,,,,,001,,,,1,,,,,,,,,,,2022.2.5,,dan,,,,,,,,,,,,001,,bal,,,,,269724,,71.42857142857143,269724,,,2023-09-26_11h34.44.401,3_2.PNG,,1,MacIntel,,,,,,baldan,,,,
﻿,,generalizability,,,,,,,,,,2023-09-26_11h35.07.023,,generalizability,,,,,,,,,,"['0.35', '0.35']",,,,,,,,,,,,,,stems_all/9_2.PNG,,20,,100,,,3,,,,,,,,,,,,,,,,,,,,,,,10,,,,,,,,,,,,001,,,,3,,,,,,,,,,,2022.2.5,,dan,,,,,,,,,,,,001,,kora,,,,,269724,,71.42857142857143,269724,,,2023-09-26_11h34.44.401,9_2.PNG,,1,MacIntel,,,,,,koradan,,,,
﻿,,generalizability,,,,,,,,,,2023-09-26_11h35.07.023,,generalizability,,,,,,,,,,"['0.20', '0.20']",,,,,,,,,,,,,,stems_all/2_dim_sg.PNG,,6,,101,,,3,,,,,,,,,,,,,,,,,,,,,,,11,,,,,,,,,,,,001,,,,7,,,,,,,,,,,2022.2.5,,nem,,,,,,,,,,,,001,,chool,,,,,269724,,71.42857142857143,269724,,,2023-09-26_11h34.44.401,2_dim_sg.PNG,,1,MacIntel,,,,,,choolnem,,,,
﻿,,generalizability,,,,,,,,,,2023-09-26_11h35.07.023,,generalizability,,,,,,,,,,"['0.35', '0.35']",,,,,,,,,,,,,,stems_all/7_2.PNG,,18,,102,,,3,,,,,,,,,,,,,,,,,,,,,,,12,,,,,,,,,,,,001,,,,2,,,,,,,,,,,2022.2.5,,dan,,,,,,,,,,,,001,,berko,,,,,269724,,71.42857142857143,269724,,,2023-09-26_11h34.44.401,7_2.PNG,,1,MacIntel,,,,,,berkodan,,,,
﻿,,generalizability,,,,,,,,,,2023-09-26_11h35.07.023,,generalizability,,,,,,,,,,"['0.20', '0.20']",,,,,,,,,,,,,,stems_all/3_dim_sg.PNG,,11,,103,,,3,,,,,,,,,,,,,,,,,,,,,,,13,,,,,,,,,,,,001,,,,12,,,,,,,,,,,2022.2.5,,nem,,,,,,,,,,,,001,,mero,,,,,269724,,71.42857142857143,269724,,,2023-09-26_11h34.44.401,3_dim_sg.PNG,,1,MacIntel,,,,,,meronem,,,,
﻿,,generalizability,,,backspace,,,,"
",,,2023-09-26_11h35.07.023,,generalizability,,,,,,,,,,"['0.20', '0.20']",,,,,,,,,,,,,,stems_all/1_dim_sg.PNG,,1,,104,,,3,,,,,,,,,9.146000000000186,,,,,,,,,,,,,,14,,,,,,,,,,,,001,,,,2,,,,,,,,,,,2022.2.5,,nem,,,,,,,,,,,,001,,berko,,,,,269724,,71.42857142857143,269724,,,2023-09-26_11h34.44.401,1_dim_sg.PNG,,1,MacIntel,,,,,,berkonem,,,,
﻿,,generalizability,,,n,,,,balshoon,,,2023-09-26_11h35.07.023,,generalizability,,,,,,,,,,"['0.20', '0.20']",,,,,,,,,,,,,,stems_all/1_dim_sg.PNG,,27,,105,,,3,,,,,,,,,9.536999999999807,,,,,,,,,,,,,,15,,,,,,,,,,,,001,,,,1,,,,,,,,,,,2022.2.5,,shoon,,,,,,,,,,,,001,,bal,,,,,269724,,71.42857142857143,269724,,,2023-09-26_11h34.44.401,1_dim_sg.PNG,,1,MacIntel,,,,,,balshoon,,,,
﻿,,generalizability,,,n,,,,baldan,,,2023-09-26_11h35.07.023,,generalizability,,,,,,,,,,"['0.35', '0.35']",,,,,,,,,,,,,,stems_all/2_2.PNG,,13,,106,,,3,,,,,,,,,1.462999999999738,,,,,,,,,,,,,,16,,,,,,,,,,,,001,,,,1,,,,,,,,,,,2022.2.5,,dan,,,,,,,,,,,,001,,bal,,,,,269724,,71.42857142857143,269724,,,2023-09-26_11h34.44.401,2_2.PNG,,1,MacIntel,,,,,,baldan,,,,
﻿,,generalizability,,,,,,,,,,2023-09-26_11h35.07.023,,generalizability,,,,,,,,,,"['0.20', '0.20']",,,,,,,,,,,,,,stems_all/1_dim_sg.PNG,,3,,107,,,3,,,,,,,,,,,,,,,,,,,,,,,17,,,,,,,,,,,,001,,,,4,,,,,,,,,,,2022.2.5,,nem,,,,,,,,,,,,001,,nako,,,,,269724,,71.42857142857143,269724,,,2023-09-26_11h34.44.401,1_dim_sg.PNG,,1,MacIntel,,,,,,nakonem,,,,
﻿,,generalizability,,,m,,,,baninem,,,2023-09-26_11h35.07.023,,generalizability,,,,,,,,,,"['0.20', '0.20']",,,,,,,,,,,,,,stems_all/2_dim_sg.PNG,,5,,108,,,3,,,,,,,,,6.209000000000287,,,,,,,,,,,,,,18,,,,,,,,,,,,001,,,,6,,,,,,,,,,,2022.2.5,,nem,,,,,,,,,,,,001,,bani,,,,,269724,,71.42857142857143,269724,,,2023-09-26_11h34.44.401,2_dim_sg.PNG,,1,MacIntel,,,,,,baninem,,,,
﻿,,generalizability,,,n,,,, berkoshoon,,,2023-09-26_11h35.07.023,,generalizability,,,,,,,,,,"['0.20', '0.20']",,,,,,,,,,,,,,stems_all/2_dim_sg.PNG,,28,,109,,,3,,,,,,,,,8,,,,,,,,,,,,,,19,,,,,,,,,,,,001,,,,2,,,,,,,,,,,2022.2.5,,shoon,,,,,,,,,,,,001,,berko,,,,,269724,,71.42857142857143,269724,,,2023-09-26_11h34.44.401,2_dim_sg.PNG,,1,MacIntel,,,,,,berkoshoon,,,,
﻿,,generalizability,,,m,,,,binnem,,,2023-09-26_11h35.07.023,,generalizability,,,,,,,,,,"['0.20', '0.20']",,,,,,,,,,,,,,stems_all/3_dim_sg.PNG,,10,,110,,,3,,,,,,,,,7.954999999999927,,,,,,,,,,,,,,20,,,,,,,,,,,,001,,,,11,,,,,,,,,,,2022.2.5,,nem,,,,,,,,,,,,001,,bin,,,,,269724,,71.42857142857143,269724,,,2023-09-26_11h34.44.401,3_dim_sg.PNG,,1,MacIntel,,,,,,binnem,,,,
﻿,,generalizability,,,m,,,,pipanem,,,2023-09-26_11h35.07.023,,generalizability,,,,,,,,,,"['0.20', '0.20']",,,,,,,,,,,,,,stems_all/2_dim_sg.PNG,,4,,111,,,3,,,,,,,,,5.404999999999745,,,,,,,,,,,,,,21,,,,,,,,,,,,001,,,,5,,,,,,,,,,,2022.2.5,,nem,,,,,,,,,,,,001,,pipa,,,,,269724,,71.42857142857143,269724,,,2023-09-26_11h34.44.401,2_dim_sg.PNG,,1,MacIntel,,,,,,pipanem,,,,
﻿,,generalizability,,,m,,,,koranem,,,2023-09-26_11h35.07.023,,generalizability,,,,,,,,,,"['0.20', '0.20']",,,,,,,,,,,,,,stems_all/1_dim_sg.PNG,,2,,112,,,3,,,,,,,,,4.596000000000004,,,,,,,,,,,,,,22,,,,,,,,,,,,001,,,,3,,,,,,,,,,,2022.2.5,,nem,,,,,,,,,,,,001,,kora,,,,,269724,,71.42857142857143,269724,,,2023-09-26_11h34.44.401,1_dim_sg.PNG,,1,MacIntel,,,,,,koranem,,,,
﻿,,generalizability,,,n,,,,berkodan,,,2023-09-26_11h35.07.023,,generalizability,,,,,,,,,,"['0.35', '0.35']",,,,,,,,,,,,,,stems_all/5_2.PNG,,16,,113,,,3,,,,,,,,,4.572000000000116,,,,,,,,,,,,,,23,,,,,,,,,,,,001,,,,2,,,,,,,,,,,2022.2.5,,dan,,,,,,,,,,,,001,,berko,,,,,269724,,71.42857142857143,269724,,,2023-09-26_11h34.44.401,5_2.PNG,,1,MacIntel,,,,,,berkodan,,,,
﻿,,generalizability,,,m,,,,kudomnem,,,2023-09-26_11h35.07.023,,generalizability,,,,,,,,,,"['0.20', '0.20']",,,,,,,,,,,,,,stems_all/2_dim_sg.PNG,,7,,114,,,3,,,,,,,,,4.508000000000266,,,,,,,,,,,,,,24,,,,,,,,,,,,001,,,,8,,,,,,,,,,,2022.2.5,,nem,,,,,,,,,,,,001,,kudom,,,,,269724,,71.42857142857143,269724,,,2023-09-26_11h34.44.401,2_dim_sg.PNG,,1,MacIntel,,,,,,kudomnem,,,,
﻿,,generalizability,,,,,,,,,,2023-09-26_11h35.07.023,,generalizability,,,,,,,,,,"['0.35', '0.35']",,,,,,,,,,,,,,stems_all/2_2.PNG,,25,,115,,,3,,,,,,,,,,,,,,,,,,,,,,,25,,,,,,,,,,,,001,,,,2,,,,,,,,,,,2022.2.5,,sil,,,,,,,,,,,,001,,berko,,,,,269724,,71.42857142857143,269724,,,2023-09-26_11h34.44.401,2_2.PNG,,1,MacIntel,,,,,,berkosil,,,,
﻿,,generalizability,,,n,,,,koradan,,,2023-09-26_11h35.07.023,,generalizability,,,,,,,,,,"['0.35', '0.35']",,,,,,,,,,,,,,stems_all/10_2.PNG,,21,,116,,,3,,,,,,,,,9.454999999999927,,,,,,,,,,,,,,26,,,,,,,,,,,,001,,,,3,,,,,,,,,,,2022.2.5,,dan,,,,,,,,,,,,001,,kora,,,,,269724,,71.42857142857143,269724,,,2023-09-26_11h34.44.401,10_2.PNG,,1,MacIntel,,,,,,koradan,,,,
﻿,,generalizability,,,m,,,,vorkenem,,,2023-09-26_11h35.07.023,,generalizability,,,,,,,,,,"['0.20', '0.20']",,,,,,,,,,,,,,stems_all/3_dim_sg.PNG,,9,,117,,,3,,,,,,,,,6.813000000000102,,,,,,,,,,,,,,27,,,,,,,,,,,,001,,,,10,,,,,,,,,,,2022.2.5,,nem,,,,,,,,,,,,001,,vorke,,,,,269724,,71.42857142857143,269724,,,2023-09-26_11h34.44.401,3_dim_sg.PNG,,1,MacIntel,,,,,,vorkenem,,,,
﻿,,generalizability,,,n,,,,korashoon,,,2023-09-26_11h35.07.023,,generalizability,,,,,,,,,,"['0.20', '0.20']",,,,,,,,,,,,,,stems_all/3_dim_sg.PNG,,29,,118,,,3,,,,,,,,,1.9939999999996871,,,,,,,,,,,,,,28,,,,,,,,,,,,001,,,,3,,,,,,,,,,,2022.2.5,,shoon,,,,,,,,,,,,001,,kora,,,,,269724,,71.42857142857143,269724,,,2023-09-26_11h34.44.401,3_dim_sg.PNG,,1,MacIntel,,,,,,korashoon,,,,
﻿,,generalizability,,,n,,,, berko dan,,,2023-09-26_11h35.07.023,,generalizability,,,,,,,,,,"['0.35', '0.35']",,,,,,,,,,,,,,stems_all/8_2.PNG,,19,,119,,,3,,,,,,,,,9.704000000000178,,,,,,,,,,,,,,29,,,,,,,,,,,,001,,,,2,,,,,,,,,,,2022.2.5,,dan,,,,,,,,,,,,001,,berko,,,,,269724,,71.42857142857143,269724,,,2023-09-26_11h34.44.401,8_2.PNG,,1,MacIntel,,,,,,berkodan,,,,
﻿,,generalizability,,,space,,,,mero nem ,,,2023-09-26_11h35.07.023,,generalizability,,,,,,,,,,"['0.20', '0.20']",,,,,,,,,,,,,,stems_all/3_dim_sg.PNG,,11,,120,,,4,,,,,,,,,9.780999999999949,,,,,,,,,,,,,,0,,,,,,,,,,,,001,,,,12,,,,,,,,,,,2022.2.5,,nem,,,,,,,,,,,,001,,mero,,,,,269724,,71.42857142857143,269724,,,2023-09-26_11h34.44.401,3_dim_sg.PNG,,1,MacIntel,,,,,,meronem,,,,
﻿,,generalizability,,,m,,,,balnem,,,2023-09-26_11h35.07.023,,generalizability,,,,,,,,,,"['0.20', '0.20']",,,,,,,,,,,,,,stems_all/1_dim_sg.PNG,,0,,121,,,4,,,,,,,,,8.159999999999854,,,,,,,,,,,,,,1,,,,,,,,,,,,001,,,,1,,,,,,,,,,,2022.2.5,,nem,,,,,,,,,,,,001,,bal,,,,,269724,,71.42857142857143,269724,,,2023-09-26_11h34.44.401,1_dim_sg.PNG,,1,MacIntel,,,,,,balnem,,,,
﻿,,generalizability,,,m,,,,pipanem,,,2023-09-26_11h35.07.023,,generalizability,,,,,,,,,,"['0.20', '0.20']",,,,,,,,,,,,,,stems_all/2_dim_sg.PNG,,4,,122,,,4,,,,,,,,,3.8589999999999236,,,,,,,,,,,,,,2,,,,,,,,,,,,001,,,,5,,,,,,,,,,,2022.2.5,,nem,,,,,,,,,,,,001,,pipa,,,,,269724,,71.42857142857143,269724,,,2023-09-26_11h34.44.401,2_dim_sg.PNG,,1,MacIntel,,,,,,pipanem,,,,
﻿,,generalizability,,,n,,,,baldan,,,2023-09-26_11h35.07.023,,generalizability,,,,,,,,,,"['0.35', '0.35']",,,,,,,,,,,,,,stems_all/2_2.PNG,,13,,123,,,4,,,,,,,,,1.637000000000171,,,,,,,,,,,,,,3,,,,,,,,,,,,001,,,,1,,,,,,,,,,,2022.2.5,,dan,,,,,,,,,,,,001,,bal,,,,,269724,,71.42857142857143,269724,,,2023-09-26_11h34.44.401,2_2.PNG,,1,MacIntel,,,,,,baldan,,,,
﻿,,generalizability,,,m,,,,binnem,,,2023-09-26_11h35.07.023,,generalizability,,,,,,,,,,"['0.20', '0.20']",,,,,,,,,,,,,,stems_all/3_dim_sg.PNG,,10,,124,,,4,,,,,,,,,7.373000000000047,,,,,,,,,,,,,,4,,,,,,,,,,,,001,,,,11,,,,,,,,,,,2022.2.5,,nem,,,,,,,,,,,,001,,bin,,,,,269724,,71.42857142857143,269724,,,2023-09-26_11h34.44.401,3_dim_sg.PNG,,1,MacIntel,,,,,,binnem,,,,
﻿,,generalizability,,,n,,,,berkoshoon,,,2023-09-26_11h35.07.023,,generalizability,,,,,,,,,,"['0.20', '0.20']",,,,,,,,,,,,,,stems_all/2_dim_sg.PNG,,28,,125,,,4,,,,,,,,,2.3779999999997017,,,,,,,,,,,,,,5,,,,,,,,,,,,001,,,,2,,,,,,,,,,,2022.2.5,,shoon,,,,,,,,,,,,001,,berko,,,,,269724,,71.42857142857143,269724,,,2023-09-26_11h34.44.401,2_dim_sg.PNG,,1,MacIntel,,,,,,berkoshoon,,,,
﻿,,generalizability,,,m,,,,vorkenem,,,2023-09-26_11h35.07.023,,generalizability,,,,,,,,,,"['0.20', '0.20']",,,,,,,,,,,,,,stems_all/3_dim_sg.PNG,,9,,126,,,4,,,,,,,,,5.173999999999978,,,,,,,,,,,,,,6,,,,,,,,,,,,001,,,,10,,,,,,,,,,,2022.2.5,,nem,,,,,,,,,,,,001,,vorke,,,,,269724,,71.42857142857143,269724,,,2023-09-26_11h34.44.401,3_dim_sg.PNG,,1,MacIntel,,,,,,vorkenem,,,,
﻿,,generalizability,,,m,,,,choolnem,,,2023-09-26_11h35.07.023,,generalizability,,,,,,,,,,"['0.20', '0.20']",,,,,,,,,,,,,,stems_all/2_dim_sg.PNG,,6,,127,,,4,,,,,,,,,4.684999999999945,,,,,,,,,,,,,,7,,,,,,,,,,,,001,,,,7,,,,,,,,,,,2022.2.5,,nem,,,,,,,,,,,,001,,chool,,,,,269724,,71.42857142857143,269724,,,2023-09-26_11h34.44.401,2_dim_sg.PNG,,1,MacIntel,,,,,,choolnem,,,,
﻿,,generalizability,,,n,,,,baldan,,,2023-09-26_11h35.07.023,,generalizability,,,,,,,,,,"['0.35', '0.35']",,,,,,,,,,,,,,stems_all/1_2.PNG,,12,,128,,,4,,,,,,,,,1.825999999999567,,,,,,,,,,,,,,8,,,,,,,,,,,,001,,,,1,,,,,,,,,,,2022.2.5,,dan,,,,,,,,,,,,001,,bal,,,,,269724,,71.42857142857143,269724,,,2023-09-26_11h34.44.401,1_2.PNG,,1,MacIntel,,,,,,baldan,,,,
﻿,,generalizability,,,m,,,,berkonem,,,2023-09-26_11h35.07.023,,generalizability,,,,,,,,,,"['0.20', '0.20']",,,,,,,,,,,,,,stems_all/1_dim_sg.PNG,,1,,129,,,4,,,,,,,,,1.5839999999998327,,,,,,,,,,,,,,9,,,,,,,,,,,,001,,,,2,,,,,,,,,,,2022.2.5,,nem,,,,,,,,,,,,001,,berko,,,,,269724,,71.42857142857143,269724,,,2023-09-26_11h34.44.401,1_dim_sg.PNG,,1,MacIntel,,,,,,berkonem,,,,
﻿,,generalizability,,,n,,,,balshoon,,,2023-09-26_11h35.07.023,,generalizability,,,,,,,,,,"['0.20', '0.20']",,,,,,,,,,,,,,stems_all/1_dim_sg.PNG,,27,,130,,,4,,,,,,,,,1.6770000000001346,,,,,,,,,,,,,,10,,,,,,,,,,,,001,,,,1,,,,,,,,,,,2022.2.5,,shoon,,,,,,,,,,,,001,,bal,,,,,269724,,71.42857142857143,269724,,,2023-09-26_11h34.44.401,1_dim_sg.PNG,,1,MacIntel,,,,,,balshoon,,,,
﻿,,generalizability,,,n,,,,berkodan,,,2023-09-26_11h35.07.023,,generalizability,,,,,,,,,,"['0.35', '0.35']",,,,,,,,,,,,,,stems_all/6_2.PNG,,17,,131,,,4,,,,,,,,,2.87099999999964,,,,,,,,,,,,,,11,,,,,,,,,,,,001,,,,2,,,,,,,,,,,2022.2.5,,dan,,,,,,,,,,,,001,,berko,,,,,269724,,71.42857142857143,269724,,,2023-09-26_11h34.44.401,6_2.PNG,,1,MacIntel,,,,,,berkodan,,,,
﻿,,generalizability,,,l,,,,balsil,,,2023-09-26_11h35.07.023,,generalizability,,,,,,,,,,"['0.35', '0.35']",,,,,,,,,,,,,,stems_all/1_2.PNG,,24,,132,,,4,,,,,,,,,1.4929999999999382,,,,,,,,,,,,,,12,,,,,,,,,,,,001,,,,1,,,,,,,,,,,2022.2.5,,sil,,,,,,,,,,,,001,,bal,,,,,269724,,71.42857142857143,269724,,,2023-09-26_11h34.44.401,1_2.PNG,,1,MacIntel,,,,,,balsil,,,,
﻿,,generalizability,,,n,,,,koradan,,,2023-09-26_11h35.07.023,,generalizability,,,,,,,,,,"['0.35', '0.35']",,,,,,,,,,,,,,stems_all/9_2.PNG,,20,,133,,,4,,,,,,,,,4.018999999999778,,,,,,,,,,,,,,13,,,,,,,,,,,,001,,,,3,,,,,,,,,,,2022.2.5,,dan,,,,,,,,,,,,001,,kora,,,,,269724,,71.42857142857143,269724,,,2023-09-26_11h34.44.401,9_2.PNG,,1,MacIntel,,,,,,koradan,,,,
﻿,,generalizability,,,m,,,,nakonem,,,2023-09-26_11h35.07.023,,generalizability,,,,,,,,,,"['0.20', '0.20']",,,,,,,,,,,,,,stems_all/1_dim_sg.PNG,,3,,134,,,4,,,,,,,,,2.876999999999498,,,,,,,,,,,,,,14,,,,,,,,,,,,001,,,,4,,,,,,,,,,,2022.2.5,,nem,,,,,,,,,,,,001,,nako,,,,,269724,,71.42857142857143,269724,,,2023-09-26_11h34.44.401,1_dim_sg.PNG,,1,MacIntel,,,,,,nakonem,,,,
﻿,,generalizability,,,l,,,,berkosil,,,2023-09-26_11h35.07.023,,generalizability,,,,,,,,,,"['0.35', '0.35']",,,,,,,,,,,,,,stems_all/2_2.PNG,,25,,135,,,4,,,,,,,,,1.8919999999998254,,,,,,,,,,,,,,15,,,,,,,,,,,,001,,,,2,,,,,,,,,,,2022.2.5,,sil,,,,,,,,,,,,001,,berko,,,,,269724,,71.42857142857143,269724,,,2023-09-26_11h34.44.401,2_2.PNG,,1,MacIntel,,,,,,berkosil,,,,
﻿,,generalizability,,,n,,,,baldan,,,2023-09-26_11h35.07.023,,generalizability,,,,,,,,,,"['0.35', '0.35']",,,,,,,,,,,,,,stems_all/4_2.PNG,,15,,136,,,4,,,,,,,,,9.949999999999818,,,,,,,,,,,,,,16,,,,,,,,,,,,001,,,,1,,,,,,,,,,,2022.2.5,,dan,,,,,,,,,,,,001,,bal,,,,,269724,,71.42857142857143,269724,,,2023-09-26_11h34.44.401,4_2.PNG,,1,MacIntel,,,,,,baldan,,,,
﻿,,generalizability,,,,,,,,,,2023-09-26_16h57.04.114,,generalizability,,5,,,,,,,,,,,,,,,,,,,,,,,,,0,,,,,,,,,,,,,,,,,,,,,,,,,,,,,,,,,,,,,,,001,,,,,,,,,,,,,,,2022.2.5,,,,,,,,,,,,,,001,,,,,,,039170,,52.63157894736842,039170,,,2023-09-26_16h53.24.544,,,,MacIntel,,,,,,,,,,
﻿,,generalizability,,,,,,1.1640000000000157,,,,2023-09-26_16h57.04.114,,generalizability,,,,,,,,,,,,,,,,,,,,,,,,,,,,,,,,,,,,,,,,,,,,,,,,,,,,,,,,,,,,,,,,,,001,,,,,,,,,,,,,,,2022.2.5,,,,space,,,,,,,,,,001,,,,,,,039170,,52.63157894736842,039170,,,2023-09-26_16h53.24.544,,,,MacIntel,,,,,,,,,,
﻿,,generalizability,,,,0,,,,,,2023-09-26_16h57.04.114,,generalizability,,,space,4.871999999999986,,,,,,,1.8530000000000086,,,3.990000000000009,,"

",,,,,,"

",,,,,,,,,,0,,"

",,,return,,,,,,,0,,1,0.4890000000000043,,,,,,,,,,,,,"

",,,return,,,001,,,,,,,return,,0.5439999999999827,,,,return,,2022.2.5,,,return,,,,,"

",0.6989999999999839,,,0,"    
",001,,,,,,,039170,0.4900000000000091,52.63157894736842,039170,return,,2023-09-26_16h53.24.544,,,,MacIntel,,,,,,,,space,0.47400000000001796,
﻿,,generalizability,,,,,space,,,,,2023-09-26_16h57.04.114,,generalizability,,,,,,,,,,,,,2.3859999999999957,,,,,,,,,,,,,,,,,,,,,,,,,,,,,,,,,,,,,,,,,,,,,,,,,,,,,001,,,,,,,,,,,,,,,2022.2.5,,,,,,,,,,,,,,001,,,,,,,039170,,52.63157894736842,039170,,,2023-09-26_16h53.24.544,,,,MacIntel,,,,,,,,,,
﻿,,generalizability,,1.453000000000003,,,,,,,,2023-09-26_16h57.04.114,,generalizability,,,,,,,,,,,,,,,,,,,,,,,,,,,,,,,,,,,,,,,,,,,,,,,,,,,,,,,,,,,,,,,,,,001,,,,,,,,,,,,,,,2022.2.5,,,,,,,,,,,,,,001,,,,,,,039170,,52.63157894736842,039170,,,2023-09-26_16h53.24.544,,space,,MacIntel,,,,,,,,,,
﻿,,generalizability,,,m,,,,berkonem,,,2023-09-26_16h57.04.114,,generalizability,,,,,,,,,,"['0.20', '0.20']",,,,,,,,,,,,,,stems_all/2_dim_sg.PNG,,4,,0,,,0,,,,,,,,,2.149000000000001,,,,,,,,,,,,,,0,,,,,,,,,,,,001,,,,2,,,,,,,,,,,2022.2.5,,nem,,,,,,,,,,,,001,,berko,,,,,039170,,52.63157894736842,039170,,,2023-09-26_16h53.24.544,2_dim_sg.PNG,,1,MacIntel,,,,,,berkonem,,,,
﻿,,generalizability,,,m,,,,koranem,,,2023-09-26_16h57.04.114,,generalizability,,,,,,,,,,"['0.20', '0.20']",,,,,,,,,,,,,,stems_all/3_dim_sg.PNG,,9,,1,,,0,,,,,,,,,1.9350000000000023,,,,,,,,,,,,,,1,,,,,,,,,,,,001,,,,3,,,,,,,,,,,2022.2.5,,nem,,,,,,,,,,,,001,,kora,,,,,039170,,52.63157894736842,039170,,,2023-09-26_16h53.24.544,3_dim_sg.PNG,,1,MacIntel,,,,,,koranem,,,,
﻿,,generalizability,,,m,,,,berkonem,,,2023-09-26_16h57.04.114,,generalizability,,,,,,,,,,"['0.20', '0.20']",,,,,,,,,,,,,,stems_all/2_dim_sg.PNG,,6,,2,,,0,,,,,,,,,1.9509999999999934,,,,,,,,,,,,,,2,,,,,,,,,,,,001,,,,2,,,,,,,,,,,2022.2.5,,nem,,,,,,,,,,,,001,,berko,,,,,039170,,52.63157894736842,039170,,,2023-09-26_16h53.24.544,2_dim_sg.PNG,,1,MacIntel,,,,,,berkonem,,,,
﻿,,generalizability,,,m,,,,balnem,,,2023-09-26_16h57.04.114,,generalizability,,,,,,,,,,"['0.20', '0.20']",,,,,,,,,,,,,,stems_all/1_dim_sg.PNG,,3,,3,,,0,,,,,,,,,1.5910000000000082,,,,,,,,,,,,,,3,,,,,,,,,,,,001,,,,1,,,,,,,,,,,2022.2.5,,nem,,,,,,,,,,,,001,,bal,,,,,039170,,52.63157894736842,039170,,,2023-09-26_16h53.24.544,1_dim_sg.PNG,,1,MacIntel,,,,,,balnem,,,,
﻿,,generalizability,,,m,,,,balnem,,,2023-09-26_16h57.04.114,,generalizability,,,,,,,,,,"['0.20', '0.20']",,,,,,,,,,,,,,stems_all/1_dim_sg.PNG,,1,,4,,,0,,,,,,,,,1.559000000000026,,,,,,,,,,,,,,4,,,,,,,,,,,,001,,,,1,,,,,,,,,,,2022.2.5,,nem,,,,,,,,,,,,001,,bal,,,,,039170,,52.63157894736842,039170,,,2023-09-26_16h53.24.544,1_dim_sg.PNG,,1,MacIntel,,,,,,balnem,,,,
﻿,,generalizability,,,n,,,,balshoon,,,2023-09-26_16h57.04.114,,generalizability,,,,,,,,,,"['0.20', '0.20']",,,,,,,,,,,,,,stems_all/1_dim_sg.PNG,,18,,5,,,0,,,,,,,,,2.0190000000000055,,,,,,,,,,,,,,5,,,,,,,,,,,,001,,,,1,,,,,,,,,,,2022.2.5,,shoon,,,,,,,,,,,,001,,bal,,,,,039170,,52.63157894736842,039170,,,2023-09-26_16h53.24.544,1_dim_sg.PNG,,1,MacIntel,,,,,,balshoon,,,,
﻿,,generalizability,,,l,,,,balsil,,,2023-09-26_16h57.04.114,,generalizability,,,,,,,,,,"['0.35', '0.35']",,,,,,,,,,,,,,stems_all/1_2.PNG,,15,,6,,,0,,,,,,,,,1.9639999999999986,,,,,,,,,,,,,,6,,,,,,,,,,,,001,,,,1,,,,,,,,,,,2022.2.5,,sil,,,,,,,,,,,,001,,bal,,,,,039170,,52.63157894736842,039170,,,2023-09-26_16h53.24.544,1_2.PNG,,1,MacIntel,,,,,,balsil,,,,
﻿,,generalizability,,,m,,,,berkonem,,,2023-09-26_16h57.04.114,,generalizability,,,,,,,,,,"['0.20', '0.20']",,,,,,,,,,,,,,stems_all/2_dim_sg.PNG,,7,,7,,,0,,,,,,,,,1.9989999999999668,,,,,,,,,,,,,,7,,,,,,,,,,,,001,,,,2,,,,,,,,,,,2022.2.5,,nem,,,,,,,,,,,,001,,berko,,,,,039170,,52.63157894736842,039170,,,2023-09-26_16h53.24.544,2_dim_sg.PNG,,1,MacIntel,,,,,,berkonem,,,,
﻿,,generalizability,,,l,,,,korasil,,,2023-09-26_16h57.04.114,,generalizability,,,,,,,,,,"['0.35', '0.35']",,,,,,,,,,,,,,stems_all/3_2.PNG,,17,,8,,,0,,,,,,,,,2.026999999999987,,,,,,,,,,,,,,8,,,,,,,,,,,,001,,,,3,,,,,,,,,,,2022.2.5,,sil,,,,,,,,,,,,001,,kora,,,,,039170,,52.63157894736842,039170,,,2023-09-26_16h53.24.544,3_2.PNG,,1,MacIntel,,,,,,korasil,,,,
﻿,,generalizability,,,n,,,,koradan,,,2023-09-26_16h57.04.114,,generalizability,,,,,,,,,,"['0.35', '0.35']",,,,,,,,,,,,,,stems_all/3_2.PNG,,14,,9,,,0,,,,,,,,,1.7489999999999668,,,,,,,,,,,,,,9,,,,,,,,,,,,001,,,,3,,,,,,,,,,,2022.2.5,,dan,,,,,,,,,,,,001,,kora,,,,,039170,,52.63157894736842,039170,,,2023-09-26_16h53.24.544,3_2.PNG,,1,MacIntel,,,,,,koradan,,,,
﻿,,generalizability,,,m,,,,koranem,,,2023-09-26_16h57.04.114,,generalizability,,,,,,,,,,"['0.20', '0.20']",,,,,,,,,,,,,,stems_all/3_dim_sg.PNG,,10,,10,,,0,,,,,,,,,1.6739999999999782,,,,,,,,,,,,,,10,,,,,,,,,,,,001,,,,3,,,,,,,,,,,2022.2.5,,nem,,,,,,,,,,,,001,,kora,,,,,039170,,52.63157894736842,039170,,,2023-09-26_16h53.24.544,3_dim_sg.PNG,,1,MacIntel,,,,,,koranem,,,,
﻿,,generalizability,,,m,,,,koranem,,,2023-09-26_16h57.04.114,,generalizability,,,,,,,,,,"['0.20', '0.20']",,,,,,,,,,,,,,stems_all/3_dim_sg.PNG,,8,,11,,,0,,,,,,,,,3.856999999999971,,,,,,,,,,,,,,11,,,,,,,,,,,,001,,,,3,,,,,,,,,,,2022.2.5,,nem,,,,,,,,,,,,001,,kora,,,,,039170,,52.63157894736842,039170,,,2023-09-26_16h53.24.544,3_dim_sg.PNG,,1,MacIntel,,,,,,koranem,,,,
﻿,,generalizability,,,l,,,,berkosil,,,2023-09-26_16h57.04.114,,generalizability,,,,,,,,,,"['0.35', '0.35']",,,,,,,,,,,,,,stems_all/2_2.PNG,,16,,12,,,0,,,,,,,,,2.072999999999979,,,,,,,,,,,,,,12,,,,,,,,,,,,001,,,,2,,,,,,,,,,,2022.2.5,,sil,,,,,,,,,,,,001,,berko,,,,,039170,,52.63157894736842,039170,,,2023-09-26_16h53.24.544,2_2.PNG,,1,MacIntel,,,,,,berkosil,,,,
﻿,,generalizability,,,m,,,,berkonem,,,2023-09-26_16h57.04.114,,generalizability,,,,,,,,,,"['0.20', '0.20']",,,,,,,,,,,,,,stems_all/2_dim_sg.PNG,,5,,13,,,0,,,,,,,,,1.718999999999994,,,,,,,,,,,,,,13,,,,,,,,,,,,001,,,,2,,,,,,,,,,,2022.2.5,,nem,,,,,,,,,,,,001,,berko,,,,,039170,,52.63157894736842,039170,,,2023-09-26_16h53.24.544,2_dim_sg.PNG,,1,MacIntel,,,,,,berkonem,,,,
﻿,,generalizability,,,n,,,,baldan,,,2023-09-26_16h57.04.114,,generalizability,,,,,,,,,,"['0.35', '0.35']",,,,,,,,,,,,,,stems_all/1_2.PNG,,12,,14,,,0,,,,,,,,,1.5439999999999827,,,,,,,,,,,,,,14,,,,,,,,,,,,001,,,,1,,,,,,,,,,,2022.2.5,,dan,,,,,,,,,,,,001,,bal,,,,,039170,,52.63157894736842,039170,,,2023-09-26_16h53.24.544,1_2.PNG,,1,MacIntel,,,,,,baldan,,,,
﻿,,generalizability,,,n,,,,korashoon,,,2023-09-26_16h57.04.114,,generalizability,,,,,,,,,,"['0.20', '0.20']",,,,,,,,,,,,,,stems_all/3_dim_sg.PNG,,20,,15,,,0,,,,,,,,,2.11099999999999,,,,,,,,,,,,,,15,,,,,,,,,,,,001,,,,3,,,,,,,,,,,2022.2.5,,shoon,,,,,,,,,,,,001,,kora,,,,,039170,,52.63157894736842,039170,,,2023-09-26_16h53.24.544,3_dim_sg.PNG,,1,MacIntel,,,,,,korashoon,,,,
﻿,,generalizability,,,m,,,,balnem,,,2023-09-26_16h57.04.114,,generalizability,,,,,,,,,,"['0.20', '0.20']",,,,,,,,,,,,,,stems_all/1_dim_sg.PNG,,0,,16,,,0,,,,,,,,,1.478999999999985,,,,,,,,,,,,,,16,,,,,,,,,,,,001,,,,1,,,,,,,,,,,2022.2.5,,nem,,,,,,,,,,,,001,,bal,,,,,039170,,52.63157894736842,039170,,,2023-09-26_16h53.24.544,1_dim_sg.PNG,,1,MacIntel,,,,,,balnem,,,,
﻿,,generalizability,,,m,,,,balnem,,,2023-09-26_16h57.04.114,,generalizability,,,,,,,,,,"['0.20', '0.20']",,,,,,,,,,,,,,stems_all/1_dim_sg.PNG,,2,,17,,,0,,,,,,,,,1.66700000000003,,,,,,,,,,,,,,17,,,,,,,,,,,,001,,,,1,,,,,,,,,,,2022.2.5,,nem,,,,,,,,,,,,001,,bal,,,,,039170,,52.63157894736842,039170,,,2023-09-26_16h53.24.544,1_dim_sg.PNG,,1,MacIntel,,,,,,balnem,,,,
﻿,,generalizability,,,n,,,,berkodan,,,2023-09-26_16h57.04.114,,generalizability,,,,,,,,,,"['0.35', '0.35']",,,,,,,,,,,,,,stems_all/2_2.PNG,,13,,18,,,0,,,,,,,,,1.8389999999999986,,,,,,,,,,,,,,18,,,,,,,,,,,,001,,,,2,,,,,,,,,,,2022.2.5,,dan,,,,,,,,,,,,001,,berko,,,,,039170,,52.63157894736842,039170,,,2023-09-26_16h53.24.544,2_2.PNG,,1,MacIntel,,,,,,berkodan,,,,
﻿,,generalizability,,,n,,,,berkoshoon,,,2023-09-26_16h57.04.114,,generalizability,,,,,,,,,,"['0.20', '0.20']",,,,,,,,,,,,,,stems_all/2_dim_sg.PNG,,19,,19,,,0,,,,,,,,,2.2069999999999936,,,,,,,,,,,,,,19,,,,,,,,,,,,001,,,,2,,,,,,,,,,,2022.2.5,,shoon,,,,,,,,,,,,001,,berko,,,,,039170,,52.63157894736842,039170,,,2023-09-26_16h53.24.544,2_dim_sg.PNG,,1,MacIntel,,,,,,berkoshoon,,,,
﻿,,generalizability,,,m,,,,koranem,,,2023-09-26_16h57.04.114,,generalizability,,,,,,,,,,"['0.20', '0.20']",,,,,,,,,,,,,,stems_all/3_dim_sg.PNG,,11,,20,,,0,,,,,,,,,1.7280000000000086,,,,,,,,,,,,,,20,,,,,,,,,,,,001,,,,3,,,,,,,,,,,2022.2.5,,nem,,,,,,,,,,,,001,,kora,,,,,039170,,52.63157894736842,039170,,,2023-09-26_16h53.24.544,3_dim_sg.PNG,,1,MacIntel,,,,,,koranem,,,,
﻿,,generalizability,,,n,,,,berkoshoon,,,2023-09-26_16h57.04.114,,generalizability,,,,,,,,,,"['0.20', '0.20']",,,,,,,,,,,,,,stems_all/2_dim_sg.PNG,,19,,21,,,1,,,,,,,,,2.1720000000000255,,,,,,,,,,,,,,0,,,,,,,,,,,,001,,,,2,,,,,,,,,,,2022.2.5,,shoon,,,,,,,,,,,,001,,berko,,,,,039170,,52.63157894736842,039170,,,2023-09-26_16h53.24.544,2_dim_sg.PNG,,1,MacIntel,,,,,,berkoshoon,,,,
﻿,,generalizability,,,l,,,,berkosil,,,2023-09-26_16h57.04.114,,generalizability,,,,,,,,,,"['0.35', '0.35']",,,,,,,,,,,,,,stems_all/2_2.PNG,,16,,22,,,1,,,,,,,,,1.75,,,,,,,,,,,,,,1,,,,,,,,,,,,001,,,,2,,,,,,,,,,,2022.2.5,,sil,,,,,,,,,,,,001,,berko,,,,,039170,,52.63157894736842,039170,,,2023-09-26_16h53.24.544,2_2.PNG,,1,MacIntel,,,,,,berkosil,,,,
﻿,,generalizability,,,m,,,,berkonem,,,2023-09-26_16h57.04.114,,generalizability,,,,,,,,,,"['0.20', '0.20']",,,,,,,,,,,,,,stems_all/2_dim_sg.PNG,,4,,23,,,1,,,,,,,,,1.7369999999999663,,,,,,,,,,,,,,2,,,,,,,,,,,,001,,,,2,,,,,,,,,,,2022.2.5,,nem,,,,,,,,,,,,001,,berko,,,,,039170,,52.63157894736842,039170,,,2023-09-26_16h53.24.544,2_dim_sg.PNG,,1,MacIntel,,,,,,berkonem,,,,
﻿,,generalizability,,,m,,,,berkonem,,,2023-09-26_16h57.04.114,,generalizability,,,,,,,,,,"['0.20', '0.20']",,,,,,,,,,,,,,stems_all/2_dim_sg.PNG,,6,,24,,,1,,,,,,,,,1.6929999999999836,,,,,,,,,,,,,,3,,,,,,,,,,,,001,,,,2,,,,,,,,,,,2022.2.5,,nem,,,,,,,,,,,,001,,berko,,,,,039170,,52.63157894736842,039170,,,2023-09-26_16h53.24.544,2_dim_sg.PNG,,1,MacIntel,,,,,,berkonem,,,,
﻿,,generalizability,,,n,,,,berkodan,,,2023-09-26_16h57.04.114,,generalizability,,,,,,,,,,"['0.35', '0.35']",,,,,,,,,,,,,,stems_all/2_2.PNG,,13,,25,,,1,,,,,,,,,1.742999999999995,,,,,,,,,,,,,,4,,,,,,,,,,,,001,,,,2,,,,,,,,,,,2022.2.5,,dan,,,,,,,,,,,,001,,berko,,,,,039170,,52.63157894736842,039170,,,2023-09-26_16h53.24.544,2_2.PNG,,1,MacIntel,,,,,,berkodan,,,,
﻿,,generalizability,,,m,,,,berkonem,,,2023-09-26_16h57.04.114,,generalizability,,,,,,,,,,"['0.20', '0.20']",,,,,,,,,,,,,,stems_all/2_dim_sg.PNG,,5,,26,,,1,,,,,,,,,1.5699999999999932,,,,,,,,,,,,,,5,,,,,,,,,,,,001,,,,2,,,,,,,,,,,2022.2.5,,nem,,,,,,,,,,,,001,,berko,,,,,039170,,52.63157894736842,039170,,,2023-09-26_16h53.24.544,2_dim_sg.PNG,,1,MacIntel,,,,,,berkonem,,,,
﻿,,generalizability,,,l,,,,balsil,,,2023-09-26_16h57.04.114,,generalizability,,,,,,,,,,"['0.35', '0.35']",,,,,,,,,,,,,,stems_all/1_2.PNG,,15,,27,,,1,,,,,,,,,1.483000000000004,,,,,,,,,,,,,,6,,,,,,,,,,,,001,,,,1,,,,,,,,,,,2022.2.5,,sil,,,,,,,,,,,,001,,bal,,,,,039170,,52.63157894736842,039170,,,2023-09-26_16h53.24.544,1_2.PNG,,1,MacIntel,,,,,,balsil,,,,
﻿,,generalizability,,,m,,,,koranem,,,2023-09-26_16h57.04.114,,generalizability,,,,,,,,,,"['0.20', '0.20']",,,,,,,,,,,,,,stems_all/3_dim_sg.PNG,,11,,28,,,1,,,,,,,,,1.704999999999984,,,,,,,,,,,,,,7,,,,,,,,,,,,001,,,,3,,,,,,,,,,,2022.2.5,,nem,,,,,,,,,,,,001,,kora,,,,,039170,,52.63157894736842,039170,,,2023-09-26_16h53.24.544,3_dim_sg.PNG,,1,MacIntel,,,,,,koranem,,,,
﻿,,generalizability,,,n,,,,koradan,,,2023-09-26_16h57.04.114,,generalizability,,,,,,,,,,"['0.35', '0.35']",,,,,,,,,,,,,,stems_all/3_2.PNG,,14,,29,,,1,,,,,,,,,1.7760000000000105,,,,,,,,,,,,,,8,,,,,,,,,,,,001,,,,3,,,,,,,,,,,2022.2.5,,dan,,,,,,,,,,,,001,,kora,,,,,039170,,52.63157894736842,039170,,,2023-09-26_16h53.24.544,3_2.PNG,,1,MacIntel,,,,,,koradan,,,,
﻿,,generalizability,,,m,,,,balnem,,,2023-09-26_16h57.04.114,,generalizability,,,,,,,,,,"['0.20', '0.20']",,,,,,,,,,,,,,stems_all/1_dim_sg.PNG,,0,,30,,,1,,,,,,,,,1.7230000000000132,,,,,,,,,,,,,,9,,,,,,,,,,,,001,,,,1,,,,,,,,,,,2022.2.5,,nem,,,,,,,,,,,,001,,bal,,,,,039170,,52.63157894736842,039170,,,2023-09-26_16h53.24.544,1_dim_sg.PNG,,1,MacIntel,,,,,,balnem,,,,
﻿,,generalizability,,,n,,,,korashoon,,,2023-09-26_16h57.04.114,,generalizability,,,,,,,,,,"['0.20', '0.20']",,,,,,,,,,,,,,stems_all/3_dim_sg.PNG,,20,,31,,,1,,,,,,,,,2.7900000000000205,,,,,,,,,,,,,,10,,,,,,,,,,,,001,,,,3,,,,,,,,,,,2022.2.5,,shoon,,,,,,,,,,,,001,,kora,,,,,039170,,52.63157894736842,039170,,,2023-09-26_16h53.24.544,3_dim_sg.PNG,,1,MacIntel,,,,,,korashoon,,,,
﻿,,generalizability,,,m,,,,balnem,,,2023-09-26_16h57.04.114,,generalizability,,,,,,,,,,"['0.20', '0.20']",,,,,,,,,,,,,,stems_all/1_dim_sg.PNG,,1,,32,,,1,,,,,,,,,1.3410000000000082,,,,,,,,,,,,,,11,,,,,,,,,,,,001,,,,1,,,,,,,,,,,2022.2.5,,nem,,,,,,,,,,,,001,,bal,,,,,039170,,52.63157894736842,039170,,,2023-09-26_16h53.24.544,1_dim_sg.PNG,,1,MacIntel,,,,,,balnem,,,,
﻿,,generalizability,,,m,,,,berkonem,,,2023-09-26_16h57.04.114,,generalizability,,,,,,,,,,"['0.20', '0.20']",,,,,,,,,,,,,,stems_all/2_dim_sg.PNG,,7,,33,,,1,,,,,,,,,1.4420000000000073,,,,,,,,,,,,,,12,,,,,,,,,,,,001,,,,2,,,,,,,,,,,2022.2.5,,nem,,,,,,,,,,,,001,,berko,,,,,039170,,52.63157894736842,039170,,,2023-09-26_16h53.24.544,2_dim_sg.PNG,,1,MacIntel,,,,,,berkonem,,,,
﻿,,generalizability,,,m,,,,koranem,,,2023-09-26_16h57.04.114,,generalizability,,,,,,,,,,"['0.20', '0.20']",,,,,,,,,,,,,,stems_all/3_dim_sg.PNG,,10,,34,,,1,,,,,,,,,1.4700000000000273,,,,,,,,,,,,,,13,,,,,,,,,,,,001,,,,3,,,,,,,,,,,2022.2.5,,nem,,,,,,,,,,,,001,,kora,,,,,039170,,52.63157894736842,039170,,,2023-09-26_16h53.24.544,3_dim_sg.PNG,,1,MacIntel,,,,,,koranem,,,,
﻿,,generalizability,,,m,,,,koranem,,,2023-09-26_16h57.04.114,,generalizability,,,,,,,,,,"['0.20', '0.20']",,,,,,,,,,,,,,stems_all/3_dim_sg.PNG,,8,,35,,,1,,,,,,,,,1.9180000000000064,,,,,,,,,,,,,,14,,,,,,,,,,,,001,,,,3,,,,,,,,,,,2022.2.5,,nem,,,,,,,,,,,,001,,kora,,,,,039170,,52.63157894736842,039170,,,2023-09-26_16h53.24.544,3_dim_sg.PNG,,1,MacIntel,,,,,,koranem,,,,
﻿,,generalizability,,,m,,,,balnem,,,2023-09-26_16h57.04.114,,generalizability,,,,,,,,,,"['0.20', '0.20']",,,,,,,,,,,,,,stems_all/1_dim_sg.PNG,,2,,36,,,1,,,,,,,,,1.3260000000000218,,,,,,,,,,,,,,15,,,,,,,,,,,,001,,,,1,,,,,,,,,,,2022.2.5,,nem,,,,,,,,,,,,001,,bal,,,,,039170,,52.63157894736842,039170,,,2023-09-26_16h53.24.544,1_dim_sg.PNG,,1,MacIntel,,,,,,balnem,,,,
﻿,,generalizability,,,n,,,,balshoon,,,2023-09-26_16h57.04.114,,generalizability,,,,,,,,,,"['0.20', '0.20']",,,,,,,,,,,,,,stems_all/1_dim_sg.PNG,,18,,37,,,1,,,,,,,,,1.849999999999966,,,,,,,,,,,,,,16,,,,,,,,,,,,001,,,,1,,,,,,,,,,,2022.2.5,,shoon,,,,,,,,,,,,001,,bal,,,,,039170,,52.63157894736842,039170,,,2023-09-26_16h53.24.544,1_dim_sg.PNG,,1,MacIntel,,,,,,balshoon,,,,
﻿,,generalizability,,,l,,,,korasil,,,2023-09-26_16h57.04.114,,generalizability,,,,,,,,,,"['0.35', '0.35']",,,,,,,,,,,,,,stems_all/3_2.PNG,,17,,38,,,1,,,,,,,,,1.787999999999954,,,,,,,,,,,,,,17,,,,,,,,,,,,001,,,,3,,,,,,,,,,,2022.2.5,,sil,,,,,,,,,,,,001,,kora,,,,,039170,,52.63157894736842,039170,,,2023-09-26_16h53.24.544,3_2.PNG,,1,MacIntel,,,,,,korasil,,,,
﻿,,generalizability,,,m,,,,koranem,,,2023-09-26_16h57.04.114,,generalizability,,,,,,,,,,"['0.20', '0.20']",,,,,,,,,,,,,,stems_all/3_dim_sg.PNG,,9,,39,,,1,,,,,,,,,1.8350000000000364,,,,,,,,,,,,,,18,,,,,,,,,,,,001,,,,3,,,,,,,,,,,2022.2.5,,nem,,,,,,,,,,,,001,,kora,,,,,039170,,52.63157894736842,039170,,,2023-09-26_16h53.24.544,3_dim_sg.PNG,,1,MacIntel,,,,,,koranem,,,,
﻿,,generalizability,,,n,,,,baldan,,,2023-09-26_16h57.04.114,,generalizability,,,,,,,,,,"['0.35', '0.35']",,,,,,,,,,,,,,stems_all/1_2.PNG,,12,,40,,,1,,,,,,,,,1.5179999999999154,,,,,,,,,,,,,,19,,,,,,,,,,,,001,,,,1,,,,,,,,,,,2022.2.5,,dan,,,,,,,,,,,,001,,bal,,,,,039170,,52.63157894736842,039170,,,2023-09-26_16h53.24.544,1_2.PNG,,1,MacIntel,,,,,,baldan,,,,
﻿,,generalizability,,,m,,,,balnem,,,2023-09-26_16h57.04.114,,generalizability,,,,,,,,,,"['0.20', '0.20']",,,,,,,,,,,,,,stems_all/1_dim_sg.PNG,,3,,41,,,1,,,,,,,,,1.3350000000000364,,,,,,,,,,,,,,20,,,,,,,,,,,,001,,,,1,,,,,,,,,,,2022.2.5,,nem,,,,,,,,,,,,001,,bal,,,,,039170,,52.63157894736842,039170,,,2023-09-26_16h53.24.544,1_dim_sg.PNG,,1,MacIntel,,,,,,balnem,,,,
﻿,,generalizability,,,m,,,,berkonem,,,2023-09-26_16h57.04.114,,generalizability,,,,,,,,,,"['0.20', '0.20']",,,,,,,,,,,,,,stems_all/2_dim_sg.PNG,,4,,42,,,2,,,,,,,,,1.7160000000000082,,,,,,,,,,,,,,0,,,,,,,,,,,,001,,,,2,,,,,,,,,,,2022.2.5,,nem,,,,,,,,,,,,001,,berko,,,,,039170,,52.63157894736842,039170,,,2023-09-26_16h53.24.544,2_dim_sg.PNG,,1,MacIntel,,,,,,berkonem,,,,
﻿,,generalizability,,,m,,,,koranem,,,2023-09-26_16h57.04.114,,generalizability,,,,,,,,,,"['0.20', '0.20']",,,,,,,,,,,,,,stems_all/3_dim_sg.PNG,,8,,43,,,2,,,,,,,,,1.5339999999999918,,,,,,,,,,,,,,1,,,,,,,,,,,,001,,,,3,,,,,,,,,,,2022.2.5,,nem,,,,,,,,,,,,001,,kora,,,,,039170,,52.63157894736842,039170,,,2023-09-26_16h53.24.544,3_dim_sg.PNG,,1,MacIntel,,,,,,koranem,,,,
﻿,,generalizability,,,m,,,,balnem,,,2023-09-26_16h57.04.114,,generalizability,,,,,,,,,,"['0.20', '0.20']",,,,,,,,,,,,,,stems_all/1_dim_sg.PNG,,1,,44,,,2,,,,,,,,,1.3380000000000223,,,,,,,,,,,,,,2,,,,,,,,,,,,001,,,,1,,,,,,,,,,,2022.2.5,,nem,,,,,,,,,,,,001,,bal,,,,,039170,,52.63157894736842,039170,,,2023-09-26_16h53.24.544,1_dim_sg.PNG,,1,MacIntel,,,,,,balnem,,,,
﻿,,generalizability,,,n,,,,berkoshoon,,,2023-09-26_16h57.04.114,,generalizability,,,,,,,,,,"['0.20', '0.20']",,,,,,,,,,,,,,stems_all/2_dim_sg.PNG,,19,,45,,,2,,,,,,,,,1.8829999999999814,,,,,,,,,,,,,,3,,,,,,,,,,,,001,,,,2,,,,,,,,,,,2022.2.5,,shoon,,,,,,,,,,,,001,,berko,,,,,039170,,52.63157894736842,039170,,,2023-09-26_16h53.24.544,2_dim_sg.PNG,,1,MacIntel,,,,,,berkoshoon,,,,
﻿,,generalizability,,,m,,,,balnem,,,2023-09-26_16h57.04.114,,generalizability,,,,,,,,,,"['0.20', '0.20']",,,,,,,,,,,,,,stems_all/1_dim_sg.PNG,,2,,46,,,2,,,,,,,,,1.3140000000000214,,,,,,,,,,,,,,4,,,,,,,,,,,,001,,,,1,,,,,,,,,,,2022.2.5,,nem,,,,,,,,,,,,001,,bal,,,,,039170,,52.63157894736842,039170,,,2023-09-26_16h53.24.544,1_dim_sg.PNG,,1,MacIntel,,,,,,balnem,,,,
﻿,,generalizability,,,m,,,,balnem,,,2023-09-26_16h57.04.114,,generalizability,,,,,,,,,,"['0.20', '0.20']",,,,,,,,,,,,,,stems_all/1_dim_sg.PNG,,0,,47,,,2,,,,,,,,,1.2340000000000373,,,,,,,,,,,,,,5,,,,,,,,,,,,001,,,,1,,,,,,,,,,,2022.2.5,,nem,,,,,,,,,,,,001,,bal,,,,,039170,,52.63157894736842,039170,,,2023-09-26_16h53.24.544,1_dim_sg.PNG,,1,MacIntel,,,,,,balnem,,,,
﻿,,generalizability,,,m,,,,koranem,,,2023-09-26_16h57.04.114,,generalizability,,,,,,,,,,"['0.20', '0.20']",,,,,,,,,,,,,,stems_all/3_dim_sg.PNG,,9,,48,,,2,,,,,,,,,1.592999999999961,,,,,,,,,,,,,,6,,,,,,,,,,,,001,,,,3,,,,,,,,,,,2022.2.5,,nem,,,,,,,,,,,,001,,kora,,,,,039170,,52.63157894736842,039170,,,2023-09-26_16h53.24.544,3_dim_sg.PNG,,1,MacIntel,,,,,,koranem,,,,
﻿,,generalizability,,,n,,,,balshoon,,,2023-09-26_16h57.04.114,,generalizability,,,,,,,,,,"['0.20', '0.20']",,,,,,,,,,,,,,stems_all/1_dim_sg.PNG,,18,,49,,,2,,,,,,,,,2.5600000000000023,,,,,,,,,,,,,,7,,,,,,,,,,,,001,,,,1,,,,,,,,,,,2022.2.5,,shoon,,,,,,,,,,,,001,,bal,,,,,039170,,52.63157894736842,039170,,,2023-09-26_16h53.24.544,1_dim_sg.PNG,,1,MacIntel,,,,,,balshoon,,,,
﻿,,generalizability,,,m,,,,koranem,,,2023-09-26_16h57.04.114,,generalizability,,,,,,,,,,"['0.20', '0.20']",,,,,,,,,,,,,,stems_all/3_dim_sg.PNG,,10,,50,,,2,,,,,,,,,1.3910000000000196,,,,,,,,,,,,,,8,,,,,,,,,,,,001,,,,3,,,,,,,,,,,2022.2.5,,nem,,,,,,,,,,,,001,,kora,,,,,039170,,52.63157894736842,039170,,,2023-09-26_16h53.24.544,3_dim_sg.PNG,,1,MacIntel,,,,,,koranem,,,,
﻿,,generalizability,,,l,,,,korasil,,,2023-09-26_16h57.04.114,,generalizability,,,,,,,,,,"['0.35', '0.35']",,,,,,,,,,,,,,stems_all/3_2.PNG,,17,,51,,,2,,,,,,,,,1.7040000000000077,,,,,,,,,,,,,,9,,,,,,,,,,,,001,,,,3,,,,,,,,,,,2022.2.5,,sil,,,,,,,,,,,,001,,kora,,,,,039170,,52.63157894736842,039170,,,2023-09-26_16h53.24.544,3_2.PNG,,1,MacIntel,,,,,,korasil,,,,
﻿,,generalizability,,,m,,,,berkonem,,,2023-09-26_16h57.04.114,,generalizability,,,,,,,,,,"['0.20', '0.20']",,,,,,,,,,,,,,stems_all/2_dim_sg.PNG,,5,,52,,,2,,,,,,,,,1.6669999999999732,,,,,,,,,,,,,,10,,,,,,,,,,,,001,,,,2,,,,,,,,,,,2022.2.5,,nem,,,,,,,,,,,,001,,berko,,,,,039170,,52.63157894736842,039170,,,2023-09-26_16h53.24.544,2_dim_sg.PNG,,1,MacIntel,,,,,,berkonem,,,,
﻿,,generalizability,,,m,,,,berkonem,,,2023-09-26_16h57.04.114,,generalizability,,,,,,,,,,"['0.20', '0.20']",,,,,,,,,,,,,,stems_all/2_dim_sg.PNG,,6,,53,,,2,,,,,,,,,1.8659999999999854,,,,,,,,,,,,,,11,,,,,,,,,,,,001,,,,2,,,,,,,,,,,2022.2.5,,nem,,,,,,,,,,,,001,,berko,,,,,039170,,52.63157894736842,039170,,,2023-09-26_16h53.24.544,2_dim_sg.PNG,,1,MacIntel,,,,,,berkonem,,,,
﻿,,generalizability,,,l,,,,balsil,,,2023-09-26_16h57.04.114,,generalizability,,,,,,,,,,"['0.35', '0.35']",,,,,,,,,,,,,,stems_all/1_2.PNG,,15,,54,,,2,,,,,,,,,1.4630000000000223,,,,,,,,,,,,,,12,,,,,,,,,,,,001,,,,1,,,,,,,,,,,2022.2.5,,sil,,,,,,,,,,,,001,,bal,,,,,039170,,52.63157894736842,039170,,,2023-09-26_16h53.24.544,1_2.PNG,,1,MacIntel,,,,,,balsil,,,,
﻿,,generalizability,,,n,,,,korashoon,,,2023-09-26_16h57.04.114,,generalizability,,,,,,,,,,"['0.20', '0.20']",,,,,,,,,,,,,,stems_all/3_dim_sg.PNG,,20,,55,,,2,,,,,,,,,2.029000000000053,,,,,,,,,,,,,,13,,,,,,,,,,,,001,,,,3,,,,,,,,,,,2022.2.5,,shoon,,,,,,,,,,,,001,,kora,,,,,039170,,52.63157894736842,039170,,,2023-09-26_16h53.24.544,3_dim_sg.PNG,,1,MacIntel,,,,,,korashoon,,,,
﻿,,generalizability,,,m,,,,koranem,,,2023-09-26_16h57.04.114,,generalizability,,,,,,,,,,"['0.20', '0.20']",,,,,,,,,,,,,,stems_all/3_dim_sg.PNG,,11,,56,,,2,,,,,,,,,1.5019999999999527,,,,,,,,,,,,,,14,,,,,,,,,,,,001,,,,3,,,,,,,,,,,2022.2.5,,nem,,,,,,,,,,,,001,,kora,,,,,039170,,52.63157894736842,039170,,,2023-09-26_16h53.24.544,3_dim_sg.PNG,,1,MacIntel,,,,,,koranem,,,,
﻿,,generalizability,,,m,,,,balnem,,,2023-09-26_16h57.04.114,,generalizability,,,,,,,,,,"['0.20', '0.20']",,,,,,,,,,,,,,stems_all/1_dim_sg.PNG,,3,,57,,,2,,,,,,,,,1.2650000000000432,,,,,,,,,,,,,,15,,,,,,,,,,,,001,,,,1,,,,,,,,,,,2022.2.5,,nem,,,,,,,,,,,,001,,bal,,,,,039170,,52.63157894736842,039170,,,2023-09-26_16h53.24.544,1_dim_sg.PNG,,1,MacIntel,,,,,,balnem,,,,
﻿,,generalizability,,,n,,,,koradan,,,2023-09-26_16h57.04.114,,generalizability,,,,,,,,,,"['0.35', '0.35']",,,,,,,,,,,,,,stems_all/3_2.PNG,,14,,58,,,2,,,,,,,,,1.6129999999999995,,,,,,,,,,,,,,16,,,,,,,,,,,,001,,,,3,,,,,,,,,,,2022.2.5,,dan,,,,,,,,,,,,001,,kora,,,,,039170,,52.63157894736842,039170,,,2023-09-26_16h53.24.544,3_2.PNG,,1,MacIntel,,,,,,koradan,,,,
﻿,,generalizability,,,m,,,,berkonem,,,2023-09-26_16h57.04.114,,generalizability,,,,,,,,,,"['0.20', '0.20']",,,,,,,,,,,,,,stems_all/2_dim_sg.PNG,,7,,59,,,2,,,,,,,,,1.7490000000000236,,,,,,,,,,,,,,17,,,,,,,,,,,,001,,,,2,,,,,,,,,,,2022.2.5,,nem,,,,,,,,,,,,001,,berko,,,,,039170,,52.63157894736842,039170,,,2023-09-26_16h53.24.544,2_dim_sg.PNG,,1,MacIntel,,,,,,berkonem,,,,
﻿,,generalizability,,,n,,,,berkodan,,,2023-09-26_16h57.04.114,,generalizability,,,,,,,,,,"['0.35', '0.35']",,,,,,,,,,,,,,stems_all/2_2.PNG,,13,,60,,,2,,,,,,,,,1.8220000000000027,,,,,,,,,,,,,,18,,,,,,,,,,,,001,,,,2,,,,,,,,,,,2022.2.5,,dan,,,,,,,,,,,,001,,berko,,,,,039170,,52.63157894736842,039170,,,2023-09-26_16h53.24.544,2_2.PNG,,1,MacIntel,,,,,,berkodan,,,,
﻿,,generalizability,,,l,,,,berkosil,,,2023-09-26_16h57.04.114,,generalizability,,,,,,,,,,"['0.35', '0.35']",,,,,,,,,,,,,,stems_all/2_2.PNG,,16,,61,,,2,,,,,,,,,1.8760000000000332,,,,,,,,,,,,,,19,,,,,,,,,,,,001,,,,2,,,,,,,,,,,2022.2.5,,sil,,,,,,,,,,,,001,,berko,,,,,039170,,52.63157894736842,039170,,,2023-09-26_16h53.24.544,2_2.PNG,,1,MacIntel,,,,,,berkosil,,,,
﻿,,generalizability,,,n,,,,baldan,,,2023-09-26_16h57.04.114,,generalizability,,,,,,,,,,"['0.35', '0.35']",,,,,,,,,,,,,,stems_all/1_2.PNG,,12,,62,,,2,,,,,,,,,1.3799999999999955,,,,,,,,,,,,,,20,,,,,,,,,,,,001,,,,1,,,,,,,,,,,2022.2.5,,dan,,,,,,,,,,,,001,,bal,,,,,039170,,52.63157894736842,039170,,,2023-09-26_16h53.24.544,1_2.PNG,,1,MacIntel,,,,,,baldan,,,,
﻿,,generalizability,,,n,,,,korashoon,,,2023-09-26_16h57.04.114,,generalizability,,,,,,,,,,"['0.20', '0.20']",,,,,,,,,,,,,,stems_all/3_dim_sg.PNG,,20,,63,,,3,,,,,,,,,2.076999999999998,,,,,,,,,,,,,,0,,,,,,,,,,,,001,,,,3,,,,,,,,,,,2022.2.5,,shoon,,,,,,,,,,,,001,,kora,,,,,039170,,52.63157894736842,039170,,,2023-09-26_16h53.24.544,3_dim_sg.PNG,,1,MacIntel,,,,,,korashoon,,,,
﻿,,generalizability,,,m,,,,berkonem,,,2023-09-26_16h57.04.114,,generalizability,,,,,,,,,,"['0.20', '0.20']",,,,,,,,,,,,,,stems_all/2_dim_sg.PNG,,5,,64,,,3,,,,,,,,,1.6380000000000337,,,,,,,,,,,,,,1,,,,,,,,,,,,001,,,,2,,,,,,,,,,,2022.2.5,,nem,,,,,,,,,,,,001,,berko,,,,,039170,,52.63157894736842,039170,,,2023-09-26_16h53.24.544,2_dim_sg.PNG,,1,MacIntel,,,,,,berkonem,,,,
﻿,,generalizability,,,l,,,,korasil,,,2023-09-26_16h57.04.114,,generalizability,,,,,,,,,,"['0.35', '0.35']",,,,,,,,,,,,,,stems_all/3_2.PNG,,17,,65,,,3,,,,,,,,,1.6059999999999945,,,,,,,,,,,,,,2,,,,,,,,,,,,001,,,,3,,,,,,,,,,,2022.2.5,,sil,,,,,,,,,,,,001,,kora,,,,,039170,,52.63157894736842,039170,,,2023-09-26_16h53.24.544,3_2.PNG,,1,MacIntel,,,,,,korasil,,,,
﻿,,generalizability,,,n,,,,berkodan,,,2023-09-26_16h57.04.114,,generalizability,,,,,,,,,,"['0.35', '0.35']",,,,,,,,,,,,,,stems_all/2_2.PNG,,13,,66,,,3,,,,,,,,,1.6569999999999823,,,,,,,,,,,,,,3,,,,,,,,,,,,001,,,,2,,,,,,,,,,,2022.2.5,,dan,,,,,,,,,,,,001,,berko,,,,,039170,,52.63157894736842,039170,,,2023-09-26_16h53.24.544,2_2.PNG,,1,MacIntel,,,,,,berkodan,,,,
﻿,,generalizability,,,m,,,,koranem,,,2023-09-26_16h57.04.114,,generalizability,,,,,,,,,,"['0.20', '0.20']",,,,,,,,,,,,,,stems_all/3_dim_sg.PNG,,8,,67,,,3,,,,,,,,,1.3579999999999472,,,,,,,,,,,,,,4,,,,,,,,,,,,001,,,,3,,,,,,,,,,,2022.2.5,,nem,,,,,,,,,,,,001,,kora,,,,,039170,,52.63157894736842,039170,,,2023-09-26_16h53.24.544,3_dim_sg.PNG,,1,MacIntel,,,,,,koranem,,,,
﻿,,generalizability,,,l,,,,berkosil,,,2023-09-26_16h57.04.114,,generalizability,,,,,,,,,,"['0.35', '0.35']",,,,,,,,,,,,,,stems_all/2_2.PNG,,16,,68,,,3,,,,,,,,,1.7309999999999945,,,,,,,,,,,,,,5,,,,,,,,,,,,001,,,,2,,,,,,,,,,,2022.2.5,,sil,,,,,,,,,,,,001,,berko,,,,,039170,,52.63157894736842,039170,,,2023-09-26_16h53.24.544,2_2.PNG,,1,MacIntel,,,,,,berkosil,,,,
﻿,,generalizability,,,m,,,,balnem,,,2023-09-26_16h57.04.114,,generalizability,,,,,,,,,,"['0.20', '0.20']",,,,,,,,,,,,,,stems_all/1_dim_sg.PNG,,3,,69,,,3,,,,,,,,,1.353999999999985,,,,,,,,,,,,,,6,,,,,,,,,,,,001,,,,1,,,,,,,,,,,2022.2.5,,nem,,,,,,,,,,,,001,,bal,,,,,039170,,52.63157894736842,039170,,,2023-09-26_16h53.24.544,1_dim_sg.PNG,,1,MacIntel,,,,,,balnem,,,,
﻿,,generalizability,,,m,,,,koranem,,,2023-09-26_16h57.04.114,,generalizability,,,,,,,,,,"['0.20', '0.20']",,,,,,,,,,,,,,stems_all/3_dim_sg.PNG,,11,,70,,,3,,,,,,,,,1.5889999999999986,,,,,,,,,,,,,,7,,,,,,,,,,,,001,,,,3,,,,,,,,,,,2022.2.5,,nem,,,,,,,,,,,,001,,kora,,,,,039170,,52.63157894736842,039170,,,2023-09-26_16h53.24.544,3_dim_sg.PNG,,1,MacIntel,,,,,,koranem,,,,
﻿,,generalizability,,,m,,,,berkonem,,,2023-09-26_16h57.04.114,,generalizability,,,,,,,,,,"['0.20', '0.20']",,,,,,,,,,,,,,stems_all/2_dim_sg.PNG,,4,,71,,,3,,,,,,,,,1.7539999999999623,,,,,,,,,,,,,,8,,,,,,,,,,,,001,,,,2,,,,,,,,,,,2022.2.5,,nem,,,,,,,,,,,,001,,berko,,,,,039170,,52.63157894736842,039170,,,2023-09-26_16h53.24.544,2_dim_sg.PNG,,1,MacIntel,,,,,,berkonem,,,,
﻿,,generalizability,,,m,,,,balnem,,,2023-09-26_16h57.04.114,,generalizability,,,,,,,,,,"['0.20', '0.20']",,,,,,,,,,,,,,stems_all/1_dim_sg.PNG,,0,,72,,,3,,,,,,,,,1.34699999999998,,,,,,,,,,,,,,9,,,,,,,,,,,,001,,,,1,,,,,,,,,,,2022.2.5,,nem,,,,,,,,,,,,001,,bal,,,,,039170,,52.63157894736842,039170,,,2023-09-26_16h53.24.544,1_dim_sg.PNG,,1,MacIntel,,,,,,balnem,,,,
﻿,,generalizability,,,m,,,,berkonem,,,2023-09-26_16h57.04.114,,generalizability,,,,,,,,,,"['0.20', '0.20']",,,,,,,,,,,,,,stems_all/2_dim_sg.PNG,,7,,73,,,3,,,,,,,,,1.641999999999996,,,,,,,,,,,,,,10,,,,,,,,,,,,001,,,,2,,,,,,,,,,,2022.2.5,,nem,,,,,,,,,,,,001,,berko,,,,,039170,,52.63157894736842,039170,,,2023-09-26_16h53.24.544,2_dim_sg.PNG,,1,MacIntel,,,,,,berkonem,,,,
﻿,,generalizability,,,n,,,,balshoon,,,2023-09-26_16h57.04.114,,generalizability,,,,,,,,,,"['0.20', '0.20']",,,,,,,,,,,,,,stems_all/1_dim_sg.PNG,,18,,74,,,3,,,,,,,,,1.7520000000000095,,,,,,,,,,,,,,11,,,,,,,,,,,,001,,,,1,,,,,,,,,,,2022.2.5,,shoon,,,,,,,,,,,,001,,bal,,,,,039170,,52.63157894736842,039170,,,2023-09-26_16h53.24.544,1_dim_sg.PNG,,1,MacIntel,,,,,,balshoon,,,,
﻿,,generalizability,,,m,,,,balnem,,,2023-09-26_16h57.04.114,,generalizability,,,,,,,,,,"['0.20', '0.20']",,,,,,,,,,,,,,stems_all/1_dim_sg.PNG,,1,,75,,,3,,,,,,,,,1.2970000000000255,,,,,,,,,,,,,,12,,,,,,,,,,,,001,,,,1,,,,,,,,,,,2022.2.5,,nem,,,,,,,,,,,,001,,bal,,,,,039170,,52.63157894736842,039170,,,2023-09-26_16h53.24.544,1_dim_sg.PNG,,1,MacIntel,,,,,,balnem,,,,
﻿,,generalizability,,,l,,,,balsil,,,2023-09-26_16h57.04.114,,generalizability,,,,,,,,,,"['0.35', '0.35']",,,,,,,,,,,,,,stems_all/1_2.PNG,,15,,76,,,3,,,,,,,,,1.384999999999991,,,,,,,,,,,,,,13,,,,,,,,,,,,001,,,,1,,,,,,,,,,,2022.2.5,,sil,,,,,,,,,,,,001,,bal,,,,,039170,,52.63157894736842,039170,,,2023-09-26_16h53.24.544,1_2.PNG,,1,MacIntel,,,,,,balsil,,,,
﻿,,generalizability,,,n,,,,koradan,,,2023-09-26_16h57.04.114,,generalizability,,,,,,,,,,"['0.35', '0.35']",,,,,,,,,,,,,,stems_all/3_2.PNG,,14,,77,,,3,,,,,,,,,1.6870000000000118,,,,,,,,,,,,,,14,,,,,,,,,,,,001,,,,3,,,,,,,,,,,2022.2.5,,dan,,,,,,,,,,,,001,,kora,,,,,039170,,52.63157894736842,039170,,,2023-09-26_16h53.24.544,3_2.PNG,,1,MacIntel,,,,,,koradan,,,,
﻿,,generalizability,,,n,,,,berkoshoon,,,2023-09-26_16h57.04.114,,generalizability,,,,,,,,,,"['0.20', '0.20']",,,,,,,,,,,,,,stems_all/2_dim_sg.PNG,,19,,78,,,3,,,,,,,,,1.8940000000000055,,,,,,,,,,,,,,15,,,,,,,,,,,,001,,,,2,,,,,,,,,,,2022.2.5,,shoon,,,,,,,,,,,,001,,berko,,,,,039170,,52.63157894736842,039170,,,2023-09-26_16h53.24.544,2_dim_sg.PNG,,1,MacIntel,,,,,,berkoshoon,,,,
﻿,,generalizability,,,m,,,,balnem,,,2023-09-26_16h57.04.114,,generalizability,,,,,,,,,,"['0.20', '0.20']",,,,,,,,,,,,,,stems_all/1_dim_sg.PNG,,2,,79,,,3,,,,,,,,,1.372000000000014,,,,,,,,,,,,,,16,,,,,,,,,,,,001,,,,1,,,,,,,,,,,2022.2.5,,nem,,,,,,,,,,,,001,,bal,,,,,039170,,52.63157894736842,039170,,,2023-09-26_16h53.24.544,1_dim_sg.PNG,,1,MacIntel,,,,,,balnem,,,,
﻿,,generalizability,,,m,,,,koranem,,,2023-09-26_16h57.04.114,,generalizability,,,,,,,,,,"['0.20', '0.20']",,,,,,,,,,,,,,stems_all/3_dim_sg.PNG,,9,,80,,,3,,,,,,,,,1.4809999999999945,,,,,,,,,,,,,,17,,,,,,,,,,,,001,,,,3,,,,,,,,,,,2022.2.5,,nem,,,,,,,,,,,,001,,kora,,,,,039170,,52.63157894736842,039170,,,2023-09-26_16h53.24.544,3_dim_sg.PNG,,1,MacIntel,,,,,,koranem,,,,
﻿,,generalizability,,,n,,,,baldan,,,2023-09-26_16h57.04.114,,generalizability,,,,,,,,,,"['0.35', '0.35']",,,,,,,,,,,,,,stems_all/1_2.PNG,,12,,81,,,3,,,,,,,,,1.5199999999999818,,,,,,,,,,,,,,18,,,,,,,,,,,,001,,,,1,,,,,,,,,,,2022.2.5,,dan,,,,,,,,,,,,001,,bal,,,,,039170,,52.63157894736842,039170,,,2023-09-26_16h53.24.544,1_2.PNG,,1,MacIntel,,,,,,baldan,,,,
﻿,,generalizability,,,m,,,,koranem,,,2023-09-26_16h57.04.114,,generalizability,,,,,,,,,,"['0.20', '0.20']",,,,,,,,,,,,,,stems_all/3_dim_sg.PNG,,10,,82,,,3,,,,,,,,,1.5919999999999845,,,,,,,,,,,,,,19,,,,,,,,,,,,001,,,,3,,,,,,,,,,,2022.2.5,,nem,,,,,,,,,,,,001,,kora,,,,,039170,,52.63157894736842,039170,,,2023-09-26_16h53.24.544,3_dim_sg.PNG,,1,MacIntel,,,,,,koranem,,,,
﻿,,generalizability,,,m,,,,berkonem,,,2023-09-26_16h57.04.114,,generalizability,,,,,,,,,,"['0.20', '0.20']",,,,,,,,,,,,,,stems_all/2_dim_sg.PNG,,6,,83,,,3,,,,,,,,,1.615000000000009,,,,,,,,,,,,,,20,,,,,,,,,,,,001,,,,2,,,,,,,,,,,2022.2.5,,nem,,,,,,,,,,,,001,,berko,,,,,039170,,52.63157894736842,039170,,,2023-09-26_16h53.24.544,2_dim_sg.PNG,,1,MacIntel,,,,,,berkonem,,,,
﻿,,generalizability,,,l,,,,korasil,,,2023-09-26_16h57.04.114,,generalizability,,,,,,,,,,"['0.35', '0.35']",,,,,,,,,,,,,,stems_all/3_2.PNG,,17,,84,,,4,,,,,,,,,1.7029999999999745,,,,,,,,,,,,,,0,,,,,,,,,,,,001,,,,3,,,,,,,,,,,2022.2.5,,sil,,,,,,,,,,,,001,,kora,,,,,039170,,52.63157894736842,039170,,,2023-09-26_16h53.24.544,3_2.PNG,,1,MacIntel,,,,,,korasil,,,,
﻿,,generalizability,,,n,,,,berkoshoon,,,2023-09-26_16h57.04.114,,generalizability,,,,,,,,,,"['0.20', '0.20']",,,,,,,,,,,,,,stems_all/2_dim_sg.PNG,,19,,85,,,4,,,,,,,,,1.9210000000000491,,,,,,,,,,,,,,1,,,,,,,,,,,,001,,,,2,,,,,,,,,,,2022.2.5,,shoon,,,,,,,,,,,,001,,berko,,,,,039170,,52.63157894736842,039170,,,2023-09-26_16h53.24.544,2_dim_sg.PNG,,1,MacIntel,,,,,,berkoshoon,,,,
﻿,,generalizability,,,l,,,,berkosil,,,2023-09-26_16h57.04.114,,generalizability,,,,,,,,,,"['0.35', '0.35']",,,,,,,,,,,,,,stems_all/2_2.PNG,,16,,86,,,4,,,,,,,,,1.73599999999999,,,,,,,,,,,,,,2,,,,,,,,,,,,001,,,,2,,,,,,,,,,,2022.2.5,,sil,,,,,,,,,,,,001,,berko,,,,,039170,,52.63157894736842,039170,,,2023-09-26_16h53.24.544,2_2.PNG,,1,MacIntel,,,,,,berkosil,,,,
﻿,,generalizability,,,m,,,,koranem,,,2023-09-26_16h57.04.114,,generalizability,,,,,,,,,,"['0.20', '0.20']",,,,,,,,,,,,,,stems_all/3_dim_sg.PNG,,10,,87,,,4,,,,,,,,,1.497000000000071,,,,,,,,,,,,,,3,,,,,,,,,,,,001,,,,3,,,,,,,,,,,2022.2.5,,nem,,,,,,,,,,,,001,,kora,,,,,039170,,52.63157894736842,039170,,,2023-09-26_16h53.24.544,3_dim_sg.PNG,,1,MacIntel,,,,,,koranem,,,,
﻿,,generalizability,,,n,,,,korashoon,,,2023-09-26_16h57.04.114,,generalizability,,,,,,,,,,"['0.20', '0.20']",,,,,,,,,,,,,,stems_all/3_dim_sg.PNG,,20,,88,,,4,,,,,,,,,1.9589999999999463,,,,,,,,,,,,,,4,,,,,,,,,,,,001,,,,3,,,,,,,,,,,2022.2.5,,shoon,,,,,,,,,,,,001,,kora,,,,,039170,,52.63157894736842,039170,,,2023-09-26_16h53.24.544,3_dim_sg.PNG,,1,MacIntel,,,,,,korashoon,,,,
﻿,,generalizability,,,n,,,,baldan,,,2023-09-26_16h57.04.114,,generalizability,,,,,,,,,,"['0.35', '0.35']",,,,,,,,,,,,,,stems_all/1_2.PNG,,12,,89,,,4,,,,,,,,,1.2999999999999545,,,,,,,,,,,,,,5,,,,,,,,,,,,001,,,,1,,,,,,,,,,,2022.2.5,,dan,,,,,,,,,,,,001,,bal,,,,,039170,,52.63157894736842,039170,,,2023-09-26_16h53.24.544,1_2.PNG,,1,MacIntel,,,,,,baldan,,,,
﻿,,generalizability,,,n,,,,koradan,,,2023-09-26_16h57.04.114,,generalizability,,,,,,,,,,"['0.35', '0.35']",,,,,,,,,,,,,,stems_all/3_2.PNG,,14,,90,,,4,,,,,,,,,1.5889999999999418,,,,,,,,,,,,,,6,,,,,,,,,,,,001,,,,3,,,,,,,,,,,2022.2.5,,dan,,,,,,,,,,,,001,,kora,,,,,039170,,52.63157894736842,039170,,,2023-09-26_16h53.24.544,3_2.PNG,,1,MacIntel,,,,,,koradan,,,,
﻿,,generalizability,,,n,,,,balshoon,,,2023-09-26_16h57.04.114,,generalizability,,,,,,,,,,"['0.20', '0.20']",,,,,,,,,,,,,,stems_all/1_dim_sg.PNG,,18,,91,,,4,,,,,,,,,1.7060000000000173,,,,,,,,,,,,,,7,,,,,,,,,,,,001,,,,1,,,,,,,,,,,2022.2.5,,shoon,,,,,,,,,,,,001,,bal,,,,,039170,,52.63157894736842,039170,,,2023-09-26_16h53.24.544,1_dim_sg.PNG,,1,MacIntel,,,,,,balshoon,,,,
﻿,,generalizability,,,m,,,,balnem,,,2023-09-26_16h57.04.114,,generalizability,,,,,,,,,,"['0.20', '0.20']",,,,,,,,,,,,,,stems_all/1_dim_sg.PNG,,1,,92,,,4,,,,,,,,,1.3310000000000173,,,,,,,,,,,,,,8,,,,,,,,,,,,001,,,,1,,,,,,,,,,,2022.2.5,,nem,,,,,,,,,,,,001,,bal,,,,,039170,,52.63157894736842,039170,,,2023-09-26_16h53.24.544,1_dim_sg.PNG,,1,MacIntel,,,,,,balnem,,,,
﻿,,generalizability,,,m,,,,koranem,,,2023-09-26_16h57.04.114,,generalizability,,,,,,,,,,"['0.20', '0.20']",,,,,,,,,,,,,,stems_all/3_dim_sg.PNG,,11,,93,,,4,,,,,,,,,1.4610000000000127,,,,,,,,,,,,,,9,,,,,,,,,,,,001,,,,3,,,,,,,,,,,2022.2.5,,nem,,,,,,,,,,,,001,,kora,,,,,039170,,52.63157894736842,039170,,,2023-09-26_16h53.24.544,3_dim_sg.PNG,,1,MacIntel,,,,,,koranem,,,,
﻿,,generalizability,,,m,,,,balnem,,,2023-09-26_16h57.04.114,,generalizability,,,,,,,,,,"['0.20', '0.20']",,,,,,,,,,,,,,stems_all/1_dim_sg.PNG,,3,,94,,,4,,,,,,,,,1.36099999999999,,,,,,,,,,,,,,10,,,,,,,,,,,,001,,,,1,,,,,,,,,,,2022.2.5,,nem,,,,,,,,,,,,001,,bal,,,,,039170,,52.63157894736842,039170,,,2023-09-26_16h53.24.544,1_dim_sg.PNG,,1,MacIntel,,,,,,balnem,,,,
﻿,,generalizability,,,m,,,,balnem,,,2023-09-26_16h57.04.114,,generalizability,,,,,,,,,,"['0.20', '0.20']",,,,,,,,,,,,,,stems_all/1_dim_sg.PNG,,2,,95,,,4,,,,,,,,,1.3949999999999818,,,,,,,,,,,,,,11,,,,,,,,,,,,001,,,,1,,,,,,,,,,,2022.2.5,,nem,,,,,,,,,,,,001,,bal,,,,,039170,,52.63157894736842,039170,,,2023-09-26_16h53.24.544,1_dim_sg.PNG,,1,MacIntel,,,,,,balnem,,,,
﻿,,generalizability,,,m,,,,berkonem,,,2023-09-26_16h57.04.114,,generalizability,,,,,,,,,,"['0.20', '0.20']",,,,,,,,,,,,,,stems_all/2_dim_sg.PNG,,7,,96,,,4,,,,,,,,,2.2340000000000373,,,,,,,,,,,,,,12,,,,,,,,,,,,001,,,,2,,,,,,,,,,,2022.2.5,,nem,,,,,,,,,,,,001,,berko,,,,,039170,,52.63157894736842,039170,,,2023-09-26_16h53.24.544,2_dim_sg.PNG,,1,MacIntel,,,,,,berkonem,,,,
﻿,,generalizability,,,m,,,,berkonem,,,2023-09-26_16h57.04.114,,generalizability,,,,,,,,,,"['0.20', '0.20']",,,,,,,,,,,,,,stems_all/2_dim_sg.PNG,,6,,97,,,4,,,,,,,,,1.5510000000000446,,,,,,,,,,,,,,13,,,,,,,,,,,,001,,,,2,,,,,,,,,,,2022.2.5,,nem,,,,,,,,,,,,001,,berko,,,,,039170,,52.63157894736842,039170,,,2023-09-26_16h53.24.544,2_dim_sg.PNG,,1,MacIntel,,,,,,berkonem,,,,
﻿,,generalizability,,,m,,,,berkonem,,,2023-09-26_16h57.04.114,,generalizability,,,,,,,,,,"['0.20', '0.20']",,,,,,,,,,,,,,stems_all/2_dim_sg.PNG,,5,,98,,,4,,,,,,,,,2.724999999999909,,,,,,,,,,,,,,14,,,,,,,,,,,,001,,,,2,,,,,,,,,,,2022.2.5,,nem,,,,,,,,,,,,001,,berko,,,,,039170,,52.63157894736842,039170,,,2023-09-26_16h53.24.544,2_dim_sg.PNG,,1,MacIntel,,,,,,berkonem,,,,
﻿,,generalizability,,,l,,,,balsil,,,2023-09-26_16h57.04.114,,generalizability,,,,,,,,,,"['0.35', '0.35']",,,,,,,,,,,,,,stems_all/1_2.PNG,,15,,99,,,4,,,,,,,,,1.83400000000006,,,,,,,,,,,,,,15,,,,,,,,,,,,001,,,,1,,,,,,,,,,,2022.2.5,,sil,,,,,,,,,,,,001,,bal,,,,,039170,,52.63157894736842,039170,,,2023-09-26_16h53.24.544,1_2.PNG,,1,MacIntel,,,,,,balsil,,,,
﻿,,generalizability,,,m,,,,balnem,,,2023-09-26_16h57.04.114,,generalizability,,,,,,,,,,"['0.20', '0.20']",,,,,,,,,,,,,,stems_all/1_dim_sg.PNG,,0,,100,,,4,,,,,,,,,1.4660000000000082,,,,,,,,,,,,,,16,,,,,,,,,,,,001,,,,1,,,,,,,,,,,2022.2.5,,nem,,,,,,,,,,,,001,,bal,,,,,039170,,52.63157894736842,039170,,,2023-09-26_16h53.24.544,1_dim_sg.PNG,,1,MacIntel,,,,,,balnem,,,,
﻿,,generalizability,,,m,,,,koranem,,,2023-09-26_16h57.04.114,,generalizability,,,,,,,,,,"['0.20', '0.20']",,,,,,,,,,,,,,stems_all/3_dim_sg.PNG,,8,,101,,,4,,,,,,,,,1.538000000000011,,,,,,,,,,,,,,17,,,,,,,,,,,,001,,,,3,,,,,,,,,,,2022.2.5,,nem,,,,,,,,,,,,001,,kora,,,,,039170,,52.63157894736842,039170,,,2023-09-26_16h53.24.544,3_dim_sg.PNG,,1,MacIntel,,,,,,koranem,,,,
﻿,,generalizability,,,n,,,,berkodan,,,2023-09-26_16h57.04.114,,generalizability,,,,,,,,,,"['0.35', '0.35']",,,,,,,,,,,,,,stems_all/2_2.PNG,,13,,102,,,4,,,,,,,,,1.566000000000031,,,,,,,,,,,,,,18,,,,,,,,,,,,001,,,,2,,,,,,,,,,,2022.2.5,,dan,,,,,,,,,,,,001,,berko,,,,,039170,,52.63157894736842,039170,,,2023-09-26_16h53.24.544,2_2.PNG,,1,MacIntel,,,,,,berkodan,,,,
﻿,,generalizability,,,m,,,,koranem,,,2023-09-26_16h57.04.114,,generalizability,,,,,,,,,,"['0.20', '0.20']",,,,,,,,,,,,,,stems_all/3_dim_sg.PNG,,9,,103,,,4,,,,,,,,,1.5339999999999918,,,,,,,,,,,,,,19,,,,,,,,,,,,001,,,,3,,,,,,,,,,,2022.2.5,,nem,,,,,,,,,,,,001,,kora,,,,,039170,,52.63157894736842,039170,,,2023-09-26_16h53.24.544,3_dim_sg.PNG,,1,MacIntel,,,,,,koranem,,,,
﻿,,generalizability,,,m,,,,berkonem,,,2023-09-26_16h57.04.114,,generalizability,,,,,,,,,,"['0.20', '0.20']",,,,,,,,,,,,,,stems_all/2_dim_sg.PNG,,4,,104,,,4,,,,,,,,,1.7970000000000255,,,,,,,,,,,,,,20,,,,,,,,,,,,001,,,,2,,,,,,,,,,,2022.2.5,,nem,,,,,,,,,,,,001,,berko,,,,,039170,,52.63157894736842,039170,,,2023-09-26_16h53.24.544,2_dim_sg.PNG,,1,MacIntel,,,,,,berkonem,,,,
﻿9.70399999999995,,generalizability,,,,,,,,space,,2023-09-26_16h57.04.114,,generalizability,,,,,,,,,,,,,,,,,,,,,,,,,,,,,,,,,,,,,,,,,,,,,,,,,,,,,,,,,,,,,,,,,,001,,,,,,,,,,,,,,,2022.2.5,,,,,,,,,,,,,,001,,,,,,,039170,,52.63157894736842,039170,,,2023-09-26_16h53.24.544,,,,MacIntel,,,,,,,,,,
﻿,"['0.2', '0.2']",generalizability,,,,,,,,,,2023-09-26_16h57.04.114,,generalizability,,,,,,berko,1,,,,,,,,,,,familiar,,,7.821000000000026,,stems_all/2_dim_sg.PNG,,,,,,,return,,,0,,,,,13,,,,,,,"['0.2', '-0.2']",,,,,"berkodan
",,,,,,stems_all/2_dim_pl.PNG,,,,,0,,,,,001,"['0.35', '0.35']",,,,,,,stems_all/2_2.PNG,,,,stems_all/2.PNG,,,2022.2.5,,,,,,,,,,,,,,001,"['0.20', '0.20']",,,,,,039170,,52.63157894736842,039170,,,2023-09-26_16h53.24.544,2_2.PNG,,,MacIntel,,,,0,,,,,,"['-0.2', '-0.2']"
﻿,"['0.2', '0.2']",generalizability,,,,,,,,,,2023-09-26_16h57.04.114,,generalizability,,,,,,pil,1,,,,,,,,,,,novel,,,9.544999999999959,,stems_all/13_dim_sg.PNG,,,,,,,return,,,0,,,,,9,,,,,,,"['-0.2', '-0.2']",,,,,"pilnem
",,,,,,stems_all/13_2.PNG,,,,,1,,,,,001,"['0.20', '0.20']",,,,,,,stems_all/13_dim_pl.PNG,,,,stems_all/13.PNG,,,2022.2.5,,,,,,,,,,,,,,001,"['0.35', '0.35']",,,,,,039170,,52.63157894736842,039170,,,2023-09-26_16h53.24.544,13_dim_pl.PNG,,,MacIntel,,,,1,,,,,,"['0.2', '-0.2']"
﻿,"['0.2', '-0.2']",generalizability,,,,,,,,,,2023-09-26_16h57.04.114,,generalizability,,,,,,shinti,1,,,,,,,,,,,novel,,,6.052999999999997,,stems_all/14_dim_pl.PNG,,,,,,,return,,,0,,,,,4,,,,,,,"['-0.2', '-0.2']",,,,,"shintinem
",,,,,,stems_all/14_2.PNG,,,,,2,,,,,001,"['0.20', '0.20']",,,,,,,stems_all/14_dim_sg.PNG,,,,stems_all/14.PNG,,,2022.2.5,,,,,,,,,,,,,,001,"['0.35', '0.35']",,,,,,039170,,52.63157894736842,039170,,,2023-09-26_16h53.24.544,14_dim_sg.PNG,,,MacIntel,,,,2,,,,,,"['0.2', '0.2']"
﻿,"['0.2', '0.2']",generalizability,,,,,,,,,,2023-09-26_16h57.04.114,,generalizability,,,,,,kora,1,,,,,,,,,,,familiar,,,7.90400000000011,,stems_all/3_dim_sg.PNG,,,,,,,return,,,0,,,,,8,,,,,,,"['-0.2', '-0.2']",,,,,"koranem
",,,,,,stems_all/3_2.PNG,,,,,3,,,,,001,"['0.20', '0.20']",,,,,,,stems_all/3_dim_pl.PNG,,,,stems_all/3.PNG,,,2022.2.5,,,,,,,,,,,,,,001,"['0.35', '0.35']",,,,,,039170,,52.63157894736842,039170,,,2023-09-26_16h53.24.544,3_dim_pl.PNG,,,MacIntel,,,,3,,,,,,"['0.2', '-0.2']"
﻿,"['0.2', '-0.2']",generalizability,,,,,,,,,,2023-09-26_16h57.04.114,,generalizability,,,,,,bal,1,,,,,,,,,,,familiar,,,4.720000000000027,,stems_all/1_dim_pl.PNG,,,,,,,return,,,0,,,,,0,,,,,,,"['-0.2', '-0.2']",,,,,"balshoon
",,,,,,stems_all/1_2.PNG,,,,,4,,,,,001,"['0.20', '0.20']",,,,,,,stems_all/1_dim_sg.PNG,,,,stems_all/1.PNG,,,2022.2.5,,,,,,,,,,,,,,001,"['0.35', '0.35']",,,,,,039170,,52.63157894736842,039170,,,2023-09-26_16h53.24.544,1_dim_sg.PNG,,,MacIntel,,,,4,,,,,,"['0.2', '0.2']"
﻿,"['0.2', '0.2']",generalizability,,,,,,,,,,2023-09-26_16h57.04.114,,generalizability,,,,,,shinder,1,,,,,,,,,,,novel,,,3.5329999999999018,,stems_all/15_dim_sg.PNG,,,,,,,return,,,0,,,,,11,,,,,,,"['-0.2', '-0.2']",,,,,"shindershoon
",,,,,,stems_all/15_2.PNG,,,,,5,,,,,001,"['0.20', '0.20']",,,,,,,stems_all/15_dim_pl.PNG,,,,stems_all/15.PNG,,,2022.2.5,,,,,,,,,,,,,,001,"['0.35', '0.35']",,,,,,039170,,52.63157894736842,039170,,,2023-09-26_16h53.24.544,15_dim_pl.PNG,,,MacIntel,,,,5,,,,,,"['0.2', '-0.2']"
﻿,"['0.2', '-0.2']",generalizability,,,,,,,,,,2023-09-26_16h57.04.114,,generalizability,,,,,,berko,1,,,,,,,,,,,familiar,,,3.0710000000000264,,stems_all/2_dim_pl.PNG,,,,,,,return,,,0,,,,,1,,,,,,,"['-0.2', '-0.2']",,,,,"berkoshoon
",,,,,,stems_all/2_2.PNG,,,,,6,,,,,001,"['0.20', '0.20']",,,,,,,stems_all/2_dim_sg.PNG,,,,stems_all/2.PNG,,,2022.2.5,,,,,,,,,,,,,,001,"['0.35', '0.35']",,,,,,039170,,52.63157894736842,039170,,,2023-09-26_16h53.24.544,2_dim_sg.PNG,,,MacIntel,,,,6,,,,,,"['0.2', '0.2']"
﻿,"['0.2', '-0.2']",generalizability,,,,,,,,,,2023-09-26_16h57.04.114,,generalizability,,,,,,kora,1,,,,,,,,,,,familiar,,,3.455000000000041,,stems_all/3_dim_pl.PNG,,,,,,,return,,,0,,,,,2,,,,,,,"['-0.2', '-0.2']",,,,,"korashoon
",,,,,,stems_all/3_2.PNG,,,,,7,,,,,001,"['0.20', '0.20']",,,,,,,stems_all/3_dim_sg.PNG,,,,stems_all/3.PNG,,,2022.2.5,,,,,,,,,,,,,,001,"['0.35', '0.35']",,,,,,039170,,52.63157894736842,039170,,,2023-09-26_16h53.24.544,3_dim_sg.PNG,,,MacIntel,,,,7,,,,,,"['0.2', '0.2']"
﻿,"['0.2', '0.2']",generalizability,,,,,,,,,,2023-09-26_16h57.04.114,,generalizability,,,,,,shinti,1,,,,,,,,,,,novel,,,3.203999999999951,,stems_all/14_dim_sg.PNG,,,,,,,return,,,0,,,,,16,,,,,,,"['0.2', '-0.2']",,,,,"shontidan
",,,,,,stems_all/14_dim_pl.PNG,,,,,8,,,,,001,"['0.35', '0.35']",,,,,,,stems_all/14_2.PNG,,,,stems_all/14.PNG,,,2022.2.5,,,,,,,,,,,,,,001,"['0.20', '0.20']",,,,,,039170,,52.63157894736842,039170,,,2023-09-26_16h53.24.544,14_2.PNG,,,MacIntel,,,,8,,,,,,"['-0.2', '-0.2']"
﻿,"['0.2', '0.2']",generalizability,,,,,,,,,,2023-09-26_16h57.04.114,,generalizability,,,,,,bal,1,,,,,,,,,,,familiar,,,2.711999999999989,,stems_all/1_dim_sg.PNG,,,,,,,return,,,0,,,,,6,,,,,,,"['-0.2', '-0.2']",,,,,"balnem
",,,,,,stems_all/1_2.PNG,,,,,9,,,,,001,"['0.20', '0.20']",,,,,,,stems_all/1_dim_pl.PNG,,,,stems_all/1.PNG,,,2022.2.5,,,,,,,,,,,,,,001,"['0.35', '0.35']",,,,,,039170,,52.63157894736842,039170,,,2023-09-26_16h53.24.544,1_dim_pl.PNG,,,MacIntel,,,,9,,,,,,"['0.2', '-0.2']"
﻿,"['0.2', '0.2']",generalizability,,,,,,,,,,2023-09-26_16h57.04.114,,generalizability,,,,,,bal,1,,,,,,,,,,,familiar,,,2.1940000000000737,,stems_all/1_dim_sg.PNG,,,,,,,return,,,0,,,,,12,,,,,,,"['0.2', '-0.2']",,,,,"baldan
",,,,,,stems_all/1_dim_pl.PNG,,,,,10,,,,,001,"['0.35', '0.35']",,,,,,,stems_all/1_2.PNG,,,,stems_all/1.PNG,,,2022.2.5,,,,,,,,,,,,,,001,"['0.20', '0.20']",,,,,,039170,,52.63157894736842,039170,,,2023-09-26_16h53.24.544,1_2.PNG,,,MacIntel,,,,10,,,,,,"['-0.2', '-0.2']"
﻿,"['0.2', '0.2']",generalizability,,,,,,,,,,2023-09-26_16h57.04.114,,generalizability,,,,,,kora,1,,,,,,,,,,,familiar,,,2.4449999999999363,,stems_all/3_dim_sg.PNG,,,,,,,return,,,0,,,,,14,,,,,,,"['0.2', '-0.2']",,,,,"koradan
",,,,,,stems_all/3_dim_pl.PNG,,,,,11,,,,,001,"['0.35', '0.35']",,,,,,,stems_all/3_2.PNG,,,,stems_all/3.PNG,,,2022.2.5,,,,,,,,,,,,,,001,"['0.20', '0.20']",,,,,,039170,,52.63157894736842,039170,,,2023-09-26_16h53.24.544,3_2.PNG,,,MacIntel,,,,11,,,,,,"['-0.2', '-0.2']"
﻿,"['0.2', '0.2']",generalizability,,,,,,,,,,2023-09-26_16h57.04.114,,generalizability,,,,,,shinder,1,,,,,,,,,,,novel,,,2.63900000000001,,stems_all/15_dim_sg.PNG,,,,,,,return,,,0,,,,,17,,,,,,,"['0.2', '-0.2']",,,,,"shinderdan
